trial,start_time,rt,correct,fact_id,question,answer,alpha
1,8443.450737991952,13159.56000200822,True,161,py.png,paraguay,0.3
2,27301.535070990212,1721.8401380087016,True,161,py.png,paraguay,0.3
3,33432.24689899944,5168.496975995367,True,56,er.png,eritrea,0.3
4,46190.70893499884,711.9797539926367,True,56,er.png,eritrea,0.3
5,51177.49703300069,1291.3220369955525,True,41,cr.png,costa rica,0.3
6,57485.30324199237,1514.3640550086275,True,199,ug.png,uganda,0.3
7,68870.1342150016,721.7525649903109,True,41,cr.png,costa rica,0.3
8,73756.11113599734,771.2561200023629,True,199,ug.png,uganda,0.3
9,77834.62705199781,1143.9722100039944,True,161,py.png,paraguay,0.250390625
10,82717.87835199211,1309.342241002014,True,98,je.png,jersey,0.3
11,91970.09110999352,1323.9371810050216,True,33,cg.png,congo,0.3
12,105113.34024400276,1022.3777779901866,True,98,je.png,jersey,0.3
13,109684.42948099982,716.285082991817,True,33,cg.png,congo,0.3
14,113586.82760199008,1498.6869620042853,True,56,er.png,eritrea,0.250390625
15,118759.86407499295,1082.0500620029634,True,78,gn.png,guinea,0.3
16,130808.11857100343,1092.8432059881743,True,41,cr.png,costa rica,0.250390625
17,137899.50831099122,713.5530230007134,True,78,gn.png,guinea,0.3
18,141919.0976270038,1083.478741988074,True,199,ug.png,uganda,0.250390625
19,146277.8122969903,1343.8075480080443,True,156,pk.png,pakistan,0.3
20,155540.15917499783,1216.0499960009474,True,174,sk.png,slovakia,0.3
21,167343.0733129935,1247.6697899983265,True,156,pk.png,pakistan,0.3
22,174114.37792200013,1560.5056019994663,True,174,sk.png,slovakia,0.3
23,179348.3813030034,1270.5837179964874,True,98,je.png,jersey,0.250390625
24,183979.21212899382,1182.595468009822,True,33,cg.png,congo,0.250390625
25,189248.97616899398,1810.6515240069712,True,78,gn.png,guinea,0.250390625
26,194509.90728499892,1311.5825620043324,True,95,ir.png,iran,0.3
27,202142.69611699274,1066.8138600012753,True,163,ro.png,romania,0.3
28,210636.1521880026,1654.640141990967,True,95,ir.png,iran,0.3
29,215426.94318199938,1628.7189760041656,True,163,ro.png,romania,0.3
30,220968.6987210007,1219.133726990549,True,156,pk.png,pakistan,0.250390625
31,226008.545839999,989.9638200004119,True,174,sk.png,slovakia,0.250390625
32,231060.2083039994,1246.0263819957618,True,4,al.png,albania,0.3
33,239368.9183480019,1281.4183159935055,True,201,uy.png,uruguay,0.3
34,254216.41360600188,2894.7234579973156,True,4,al.png,albania,0.3
35,261686.80615499034,720.56445000635,True,201,uy.png,uruguay,0.3
36,266702.79166899854,980.4513510025572,True,95,ir.png,iran,0.250390625
37,270706.4644280035,2043.8448609929765,True,163,ro.png,romania,0.25117187500000004
38,278195.77499700245,1305.9206149919191,True,88,hu.png,hungary,0.3
39,283563.03068299894,1226.7590279952856,True,107,kn.png,saint kitts and nevis,0.3
40,296050.28833299,895.1445010025054,True,88,hu.png,hungary,0.3
41,300494.3345859938,394.3590880080592,True,107,kn.png,saint kitts and nevis,0.3
42,306741.491829991,975.2592380100396,True,4,al.png,albania,0.250390625
43,311273.70549799525,1037.8887469996698,True,40,co.png,colombia,0.3
44,316430.6108259916,1021.2280100095086,True,201,uy.png,uruguay,0.250390625
45,321599.2907789914,1604.2648880102206,True,40,co.png,colombia,0.3
46,326705.3964789957,1034.0612820000388,True,48,dk.png,denmark,0.3
47,331980.91145399667,1039.3249729968375,True,200,us.png,united states of america,0.3
48,339460.7040409901,1084.4691740057897,True,48,dk.png,denmark,0.3
49,346064.31980399066,952.9830030078301,True,200,us.png,united states of america,0.3
50,354000.7806579961,800.2931119990535,True,88,hu.png,hungary,0.250390625
51,360675.593906999,1144.1240970016224,False,107,kn.png,saint kitts and nevis,0.349609375
52,367585.8196219924,1891.696826001862,True,10,au.png,australia,0.3
53,376082.06813500146,976.3589200010756,True,40,co.png,colombia,0.250390625
54,380893.61800999905,1653.625088991248,True,10,au.png,australia,0.3
55,387530.48430099443,1135.4929619992618,True,84,hk.png,hong kong,0.3
56,394849.30682799313,839.5836959971348,True,48,dk.png,denmark,0.250390625
57,401010.8006380033,423.7307739967946,True,84,hk.png,hong kong,0.3
58,405597.77955600293,870.9765479870839,True,200,us.png,united states of america,0.250390625
59,412478.8950099901,1013.4814030025154,True,107,kn.png,saint kitts and nevis,0.30000000000000004
60,421453.3800079953,1163.753518005251,True,208,xk.png,kosovo,0.3
61,430194.3746679899,4119.649945001584,True,161,py.png,paraguay,0.29999999999999993
62,438453.5190349998,1441.5211460000137,True,208,xk.png,kosovo,0.3
63,443305.95335499675,1003.6703950027004,True,10,au.png,australia,0.250390625
64,450255.61059400206,1516.2202130013611,True,56,er.png,eritrea,0.20078125
65,455380.51246799296,1032.1427040034905,True,84,hk.png,hong kong,0.250390625
66,460032.47939699213,1102.1571840101387,True,153,pe.png,peru,0.3
67,469245.38017300074,1211.6252330015413,True,175,sl.png,sierra leone,0.3
68,480369.085732993,1560.342270997353,True,153,pe.png,peru,0.3
69,485100.66421299416,556.3028449978447,True,175,sl.png,sierra leone,0.3
70,490076.85729899094,1031.5505570033565,True,208,xk.png,kosovo,0.250390625
71,494496.8387429981,1263.2500079926103,True,41,cr.png,costa rica,0.20078125
72,499443.0304760026,922.826668000198,True,199,ug.png,uganda,0.20078125
73,503591.9785639999,1295.9934819955379,True,166,rw.png,rwanda,0.3
74,512310.9823739942,1166.889711006661,True,145,ni.png,nicaragua,0.3
75,519689.1915640008,406.4817350008525,True,166,rw.png,rwanda,0.3
76,523746.0687769926,1292.5474850053433,True,145,ni.png,nicaragua,0.3
77,529208.4797650023,1070.0775489967782,True,161,py.png,paraguay,0.250390625
78,535800.9912349953,1156.8271779979113,True,153,pe.png,peru,0.250390625
79,539957.452193994,1899.136196996551,True,175,sl.png,sierra leone,0.250390625
80,545820.2943029901,4915.943975007394,False,78,gn.png,guinea,0.29999999999999993
81,553937.022928003,1630.5856989929453,True,33,cg.png,congo,0.20078125
82,558736.099339003,1329.1666729928693,True,98,je.png,jersey,0.20078125
83,563398.2016730006,inf,True,202,uz.png,uzbekistan,0.3
84,584568.2915029902,1270.342192001408,True,166,rw.png,rwanda,0.250390625
85,590407.2832889942,1699.387842003489,True,202,uz.png,uzbekistan,0.3
86,596356.6905670014,1058.0897679901682,True,145,ni.png,nicaragua,0.250390625
87,602279.9405260012,1882.1572019951418,True,174,sk.png,slovakia,0.20078125
88,608679.8773789924,3408.943589005503,True,156,pk.png,pakistan,0.29999999999999993
89,617528.1399950036,inf,False,163,ro.png,romania,0.30078125
90,631879.0891719982,1236.821885991958,True,95,ir.png,iran,0.20078125
91,636065.7509509911,1047.6424660009798,True,16,be.png,belgium,0.3
92,640877.5844319898,1271.6296070138924,True,186,tg.png,togo,0.3
93,646053.6574699945,1299.4026380038122,True,16,be.png,belgium,0.3
94,651218.4546520002,339.5320220006397,True,186,tg.png,togo,0.3
95,654613.0844979925,1198.5791160113877,True,202,uz.png,uzbekistan,0.250390625
96,660374.1141920036,2623.70866999845,False,78,gn.png,guinea,0.324609375
97,666473.2488949958,1671.439982004813,True,107,kn.png,saint kitts and nevis,0.2503906250000001
98,684562.8468079958,1431.083599003614,True,4,al.png,albania,0.20078125
99,690911.6969909956,3189.2531990015414,True,201,uy.png,uruguay,0.25078124999999996
100,699529.2385490029,839.6058559883386,True,16,be.png,belgium,0.250390625
101,705817.8133030015,1695.3863399976399,True,186,tg.png,togo,0.250390625
102,710554.6316730033,1293.0760249873856,True,156,pk.png,pakistan,0.250390625
103,716594.5411229914,2810.270946007222,True,40,co.png,colombia,0.26249999999999996
104,727075.8688219939,4265.224496004521,True,163,ro.png,romania,0.32539062500000004
105,735095.0128499971,2581.5112330019474,True,88,hu.png,hungary,0.2515625
106,743442.3121799919,1072.255936000147,True,48,dk.png,denmark,0.20078125
107,748378.3721520012,944.0155549964402,True,200,us.png,united states of america,0.20078125
108,755210.0588570029,1102.2638139984338,True,8,ar.png,argentina,0.3
109,763433.8474969991,1092.102305003209,True,105,ki.png,kiribati,0.3
110,771481.3296249922,1335.4183310002554,True,8,ar.png,argentina,0.3
111,776643.949114994,443.2474189961795,True,105,ki.png,kiribati,0.3
112,781284.5365469984,9253.176254991558,True,78,gn.png,guinea,0.328125
113,793757.7791160002,990.4742899962002,True,10,au.png,australia,0.20078125
114,798183.4535999951,982.9631920001702,True,84,hk.png,hong kong,0.20078125
115,802853.3618910005,996.8084400024964,True,90,ie.png,ireland,0.3
116,808730.6268389948,1278.4531520010205,True,17,bf.png,burkina faso,0.3
117,822479.3741070025,961.5784859925043,True,90,ie.png,ireland,0.3
118,826875.5165109906,512.3401360033313,True,17,bf.png,burkina faso,0.3
119,832163.7410800031,1203.0030619935133,True,8,ar.png,argentina,0.250390625
120,838455.2729709976,1642.3832409927854,True,105,ki.png,kiribati,0.250390625
121,844034.9607870012,1039.3422659981297,True,208,xk.png,kosovo,0.20078125
122,848574.6798659966,inf,True,163,ro.png,romania,0.32578125
123,856507.3249550042,1219.9636199948145,True,167,sa.png,saudi arabia,0.3
124,866555.345449,1129.5476109953597,True,126,me.png,montenegro,0.3
125,874849.3079670006,1041.406819000258,True,167,sa.png,saudi arabia,0.3
126,880850.2295389917,2027.1435500035295,True,126,me.png,montenegro,0.3
127,887411.5680629911,901.6105210030219,True,90,ie.png,ireland,0.250390625
128,891367.7318529953,981.7500100034522,True,17,bf.png,burkina faso,0.250390625
129,896511.4452059934,4488.305299004423,True,175,sl.png,sierra leone,0.29999999999999993
130,905830.5150020024,1536.6624579910422,True,153,pe.png,peru,0.20078125
131,910327.4856740027,1026.623527999618,True,37,cl.png,chile,0.3
132,915644.4306979974,inf,True,142,na.png,namibia,0.3
133,928168.2611379947,1872.0506420067977,False,37,cl.png,chile,0.3
134,933102.7195200004,649.0741969901137,True,142,na.png,namibia,0.3
135,941079.468639,1444.1711669933284,True,167,sa.png,saudi arabia,0.250390625
136,946737.5851599936,1627.7661070053,True,126,me.png,montenegro,0.250390625
137,952462.6355099899,1193.710039005964,True,145,ni.png,nicaragua,0.20078125
138,959160.2532629913,1360.9090259997174,True,166,rw.png,rwanda,0.20078125
139,964235.5758939957,1650.594976003049,True,212,zw.png,zimbabwe,0.3
140,974371.9535349956,989.0050579997478,True,143,ne.png,niger,0.3
141,983953.959135004,358.01043499668594,True,212,zw.png,zimbabwe,0.3
142,988306.7617880006,1050.25032699632,True,143,ne.png,niger,0.3
143,993185.8778140013,1042.953629992553,True,37,cl.png,chile,0.250390625
144,997204.6784260019,1896.869271993637,False,142,na.png,namibia,0.349609375
145,1026428.894480996,1177.588022997952,True,175,sl.png,sierra leone,0.250390625
146,1031911.9360979967,4057.096566000837,True,78,gn.png,guinea,0.37773437499999996
147,1039142.8821989975,1068.271847005235,True,16,be.png,belgium,0.20078125
148,1043495.0074240041,1116.7020839930046,True,212,zw.png,zimbabwe,0.250390625
149,1049021.0070979956,1166.3447820029687,True,142,na.png,namibia,0.30000000000000004
150,1054009.3968069996,2690.8592719992157,True,143,ne.png,niger,0.312109375
151,1060012.8450339981,1481.268139992375,True,186,tg.png,togo,0.20078125
152,1064560.4851090028,3667.340691987425,False,202,uz.png,uzbekistan,0.25078124999999996
153,1073756.5805109916,4666.29258501064,True,78,gn.png,guinea,0.38984374999999993
154,1081664.8518930015,1444.2135080026928,True,40,co.png,colombia,0.21289062499999997
155,1086567.206776992,1887.7664239988662,True,163,ro.png,romania,0.32539062500000004
156,1092094.7968289983,1187.537224992644,True,138,mw.png,malawi,0.3
157,1098564.131968,1007.4762040020432,True,97,it.png,italy,0.3
158,1104006.0916919902,612.1854040103499,True,138,mw.png,malawi,0.3
159,1108551.5323689906,1147.2370130068157,True,97,it.png,italy,0.3
160,1112927.2833290016,1105.821531993337,True,12,az.png,azerbaijan,0.3
161,1128176.349677,1140.9959119919222,True,59,fi.png,finland,0.3
162,1133072.8707139934,319.92817600257695,True,12,az.png,azerbaijan,0.3
163,1137986.9014689904,1179.7203740132973,True,59,fi.png,finland,0.3
164,1143394.1483160015,1005.566391991917,True,143,ne.png,niger,0.26250000000000007
165,1147309.5925419913,1155.9610690018162,True,117,lr.png,liberia,0.3
166,1153620.7756999938,1178.8273270067293,True,138,mw.png,malawi,0.250390625
167,1158395.0844229986,1395.215519994963,True,117,lr.png,liberia,0.3
168,1163019.3095010035,892.9672349914908,True,97,it.png,italy,0.250390625
169,1167258.5639399914,inf,True,78,gn.png,guinea,0.4019531249999999
170,1173734.2752330005,inf,False,105,ki.png,kiribati,0.29999999999999993
171,1193800.537390998,4730.029143000254,True,12,az.png,azerbaijan,0.349609375
172,1203538.3640810032,826.9458430004306,True,59,fi.png,finland,0.250390625
173,1207507.2979090037,1347.2175119968597,True,8,ar.png,argentina,0.20078125
174,1431712.4765490007,1747.453335992759,True,117,lr.png,liberia,0.250390625
175,1436789.1367409902,1725.0591680058278,True,12,az.png,azerbaijan,0.30000000000000004
176,1446992.101989992,3885.02344601159,True,78,gn.png,guinea,0.42656249999999996
177,1454305.2557999908,1331.7080350096803,True,105,ki.png,kiribati,0.250390625
178,1460476.7811369966,2912.0699060005136,True,142,na.png,namibia,0.302734375
179,1467875.9307569999,8634.013842995046,False,17,bf.png,burkina faso,0.29999999999999993
180,1478791.3614220014,inf,True,90,ie.png,ireland,0.29921875
181,1483787.811807997,1529.5367570070084,True,126,me.png,montenegro,0.20078125
182,1490476.0616040002,inf,True,167,sa.png,saudi arabia,0.29999999999999993
183,1498003.2760489993,1437.6106849960051,True,78,gn.png,guinea,0.426171875
184,1503775.5692289937,2175.276007998269,True,37,cl.png,chile,0.209375
185,1508893.9798770007,2249.7375059900805,True,201,uy.png,uruguay,0.21914062499999995
186,1515171.7524010018,inf,True,88,hu.png,hungary,0.25273437500000007
187,1523049.6921070009,2738.636000998551,True,163,ro.png,romania,0.3265625000000001
188,1530635.2364100022,1544.8667129967362,True,212,zw.png,zimbabwe,0.20078125
189,1536133.6297239903,2064.1826240026858,True,138,mw.png,malawi,0.20312499999999997
190,1541712.1003119973,1868.0356149999425,True,97,it.png,italy,0.20078125
191,1547195.5112759897,1442.725461005466,True,17,bf.png,burkina faso,0.250390625
192,1555309.4111480024,1214.5587949925102,True,59,fi.png,finland,0.20078125
193,1559851.6744770021,957.1561999912374,True,90,ie.png,ireland,0.24960937499999997
194,1564613.9367769938,1082.8843530034646,True,167,sa.png,saudi arabia,0.250390625
195,1571212.5488099991,1614.3481469918042,True,78,gn.png,guinea,0.42578125
196,1577028.5907709913,2528.686808000086,True,148,np.png,nepal,0.3
197,1587196.1443119943,1160.7058670052793,True,122,ly.png,libya,0.3
198,1594768.3252569987,1019.495186002925,True,148,np.png,nepal,0.3
199,1600650.469608998,372.9935279986821,True,122,ly.png,libya,0.3
200,1604810.184685004,1238.2108769961633,True,32,cf.png,central african republic,0.3
201,1617489.5342629896,1930.4550090020057,True,202,uz.png,uzbekistan,0.20507812499999997
202,1623399.932047003,1190.734088988509,True,32,cf.png,central african republic,0.3
203,1631500.9802889982,1856.7025459923316,True,161,py.png,paraguay,0.20078125
204,1639681.9387150025,9149.470574993873,True,12,az.png,azerbaijan,0.349609375
205,1653616.7531529935,876.712384008104,True,148,np.png,nepal,0.250390625
206,1658345.4496329941,1646.929167007329,True,122,ly.png,libya,0.250390625
207,1663470.0232199975,991.2392419937532,True,143,ne.png,niger,0.21289062500000008
208,1667702.8027039925,987.2399800077546,True,80,gr.png,greece,0.3
209,1672138.6292929966,1283.466035994701,True,142,na.png,namibia,0.25312500000000004
210,1677479.7115289983,865.0888800038956,True,80,gr.png,greece,0.3
211,1682110.1091000019,1117.709280995652,True,32,cf.png,central african republic,0.250390625
212,1689861.511227995,1531.0207360016648,False,78,gn.png,guinea,0.433203125
213,1695379.5492619975,1143.8044740061741,True,158,ps.png,palestine,0.3
214,1700964.5809770008,1552.9145299952943,True,12,az.png,azerbaijan,0.30000000000000004
215,1708343.6115200021,inf,True,158,ps.png,palestine,0.3
216,1716350.7215449936,970.3717719968408,True,5,am.png,armenia,0.3
217,1730487.2624400014,887.9955989976879,True,80,gr.png,greece,0.250390625
218,1734833.238620995,299.8043069965206,True,5,am.png,armenia,0.3
219,1738994.1588619985,1320.5728790054563,True,111,kz.png,kazakhstan,0.3
220,1752826.2578799913,1436.195717003895,False,117,lr.png,liberia,0.25078124999999996
221,1759354.857472994,1142.6147460006177,False,111,kz.png,kazakhstan,0.3
222,1765630.6949659921,1550.920389010571,True,158,ps.png,palestine,0.250390625
223,1771493.7283269973,1068.7102959929034,True,141,mz.png,mozambique,0.3
224,1786616.861978997,2141.1796330064535,True,78,gn.png,guinea,0.40859375
225,1792043.1668669917,1702.8980820032302,True,141,mz.png,mozambique,0.3
226,1798532.2989319975,993.6033209960442,False,5,am.png,armenia,0.349609375
227,1802949.9308119994,1594.9460709961131,True,163,ro.png,romania,0.3261718750000001
228,1808682.4298379943,1097.4369110045955,True,135,mt.png,malta,0.3
229,1821506.0089269974,1291.639581002295,True,111,kz.png,kazakhstan,0.250390625
230,1827358.8956519961,1163.8134319945239,True,135,mt.png,malta,0.3
231,1831466.126165993,1921.610723002348,True,107,kn.png,saint kitts and nevis,0.2070312500000001
232,1838589.8060659966,2196.682194000343,True,156,pk.png,pakistan,0.22499999999999998
233,1845304.668593002,1292.822471994441,True,5,am.png,armenia,0.30000000000000004
234,1850054.1277739976,1109.2893919993658,True,141,mz.png,mozambique,0.250390625
235,1855520.4885779968,1602.833533994155,True,81,gt.png,guatemala,0.3
236,1868917.260881004,1164.275897987187,True,198,ua.png,ukraine,0.3
237,1873351.75144799,1038.718986004591,True,81,gt.png,guatemala,0.3
238,1881004.1848230031,1999.6764419919346,True,198,ua.png,ukraine,0.3
239,1887259.6122279938,1040.3340229967143,True,135,mt.png,malta,0.250390625
240,1891502.8040469915,inf,True,53,ee.png,estonia,0.3
241,1900682.3651079903,1274.1920180125162,True,71,ge.png,georgia,0.3
242,1910396.1224609958,1345.7046900000423,True,53,ee.png,estonia,0.3
243,1914966.8956219975,922.9127949948888,True,71,ge.png,georgia,0.3
244,1919520.249838999,1057.5667550000362,True,108,kp.png,north korea,0.3
245,1928147.0196150038,1173.4843989980873,True,81,gt.png,guatemala,0.250390625
246,1933916.3724629907,851.1417390108109,True,108,kp.png,north korea,0.3
247,1938637.7787300008,1121.375331000192,True,198,ua.png,ukraine,0.250390625
248,1943304.9281139974,982.2209779960103,True,116,lk.png,sri lanka,0.3
249,1954585.0289020017,1020.5841959980316,True,130,mm.png,myanmar,0.3
250,1966361.6122660022,1076.0707779992372,True,116,lk.png,sri lanka,0.3
251,1971260.0189139922,1107.5066220071167,True,130,mm.png,myanmar,0.3
252,1976764.911735998,1074.5649419985712,True,53,ee.png,estonia,0.250390625
253,1981028.7597440039,875.4845939981751,True,71,ge.png,georgia,0.250390625
254,1985340.8317849971,1321.3901959969662,True,108,kp.png,north korea,0.250390625
255,1990353.3139060019,1046.5867309975438,True,93,in.png,india,0.3
256,1994295.0794839999,3406.8713399902917,True,122,ly.png,libya,0.29999999999999993
257,2000989.6680050006,1625.0868139904924,True,93,in.png,india,0.3
258,2006746.133527995,901.5492790057324,True,148,np.png,nepal,0.20078125
259,2011422.9443130025,994.6225109889638,True,9,at.png,austria,0.3
260,2018034.142132994,829.3285410036333,True,116,lk.png,sri lanka,0.250390625
261,2022550.4815689928,329.8143889987841,True,9,at.png,austria,0.3
262,2026554.2174619914,2436.798132010037,True,130,mm.png,myanmar,0.301171875
263,2034153.2333380019,1158.0078449915163,True,32,cf.png,central african republic,0.20078125
264,2041921.8174470006,1319.5887499896344,True,192,to.png,tonga,0.3
265,2050434.7732210008,968.7286879925523,True,93,in.png,india,0.250390625
266,2055252.7754100012,528.4845319981687,True,192,to.png,tonga,0.3
267,2059128.5947239958,928.5989030031487,True,80,gr.png,greece,0.20078125
268,2063026.5532710035,2259.595015988685,True,78,gn.png,guinea,0.391015625
269,2068436.4289499936,1366.7257769992575,True,82,gw.png,guinea bissau,0.3
270,2076978.589817998,1275.3738409955986,True,9,at.png,austria,0.250390625
271,2081610.683260995,1268.3605409981683,True,82,gw.png,guinea bissau,0.3
272,2089115.77213899,1116.1003660089336,False,7,aq.png,antarctica,0.3
273,2095647.2000240027,1892.464415999595,True,122,ly.png,libya,0.250390625
274,2100673.918435001,751.9129619905725,True,7,aq.png,antarctica,0.3
275,2107906.534904003,1490.0415379959159,True,192,to.png,tonga,0.250390625
276,2112330.710823997,3071.745274006389,True,5,am.png,armenia,0.336328125
277,2119129.0921239997,1454.2453699978068,True,158,ps.png,palestine,0.20078125
278,2125189.61251399,2440.456269003451,True,175,sl.png,sierra leone,0.24374999999999997
279,2132010.178625991,1448.5642860089429,True,82,gw.png,guinea bissau,0.250390625
280,2139813.51174599,1559.4889750061557,True,26,bt.png,bhutan,0.3
281,2149357.357519999,2392.9429989946075,True,130,mm.png,myanmar,0.29296875
282,2155216.2033679923,897.1651010070927,True,26,bt.png,bhutan,0.3
283,2159430.230302998,952.0074390023947,True,7,aq.png,antarctica,0.250390625
284,2166010.199098993,1075.9740170035511,True,88,hu.png,hungary,0.24921875000000007
285,2170932.5604479965,1255.6026210077107,True,136,mu.png,mauritius,0.3
286,2180091.4781989995,1750.533244994469,True,111,kz.png,kazakhstan,0.20078125
287,2187463.4016380003,1770.4135550013743,True,136,mu.png,mauritius,0.3
288,2193023.6254769987,1001.9936689934693,True,49,dm.png,dominica,0.3
289,2202749.3871869957,1441.7554770042188,True,5,am.png,armenia,0.28671875
290,2207453.3165460015,536.8135579922237,True,49,dm.png,dominica,0.3
291,2212545.1831550016,896.9757799934596,True,26,bt.png,bhutan,0.250390625
292,2216763.6964230044,2267.7963969907723,True,141,mz.png,mozambique,0.20078125
293,2223331.433965999,3388.3384139914997,True,163,ro.png,romania,0.3265625000000001
294,2230035.8058629935,1147.1474680001847,True,120,lu.png,luxembourg,0.3
295,2236569.0136530027,inf,True,20,bi.png,burundi,0.3
296,2246137.7870129943,1089.9831459978595,True,120,lu.png,luxembourg,0.3
297,2251762.1814279994,792.3263580012135,True,20,bi.png,burundi,0.3
298,2258513.8108340036,1436.6079569878057,True,136,mu.png,mauritius,0.250390625
299,2265355.7300099926,1547.6201800052077,True,49,dm.png,dominica,0.250390625
300,2277412.5201299903,1753.4393690000288,True,135,mt.png,malta,0.20078125
301,2283116.8509379933,1326.0192960007116,True,198,ua.png,ukraine,0.20078125
302,2288048.545197991,1501.0125609985553,True,81,gt.png,guatemala,0.20078125
303,2295205.6236359933,inf,True,204,ve.png,venezuela,0.3
304,2303535.1778109907,992.2087890007533,True,120,lu.png,luxembourg,0.250390625
305,2308719.052621993,1580.1380720078014,False,204,ve.png,venezuela,0.3
306,2318748.569124,1050.556528992951,True,20,bi.png,burundi,0.250390625
307,2323359.657573994,3983.2221630061977,True,12,az.png,azerbaijan,0.349609375
308,2331435.1801250014,2219.413080994971,True,108,kp.png,north korea,0.20078125
309,2338224.92968,884.0300649898127,True,71,ge.png,georgia,0.20078125
310,2342408.454520002,3433.4415959892794,True,53,ee.png,estonia,0.29999999999999993
311,2348999.9296250027,1476.8088239943609,True,117,lr.png,liberia,0.20117187499999997
312,2355024.521706,1039.9776609996334,True,74,gh.png,ghana,0.3
313,2362465.4442419996,965.9647090011276,True,204,ve.png,venezuela,0.250390625
314,2367355.6726809912,1097.8121340009384,True,74,gh.png,ghana,0.3
315,2371356.965255996,1046.2729620048776,True,93,in.png,india,0.20078125
316,2375600.886774002,1192.3443239936605,True,132,mo.png,macao,0.3
317,2385960.459050999,1782.3415960008278,True,12,az.png,azerbaijan,0.30000000000000004
318,2394542.9026389904,557.8334010057151,True,132,mo.png,macao,0.3
319,2398227.558479004,1190.1660249861889,True,116,lk.png,sri lanka,0.20078125
320,2402998.597842001,2097.3870159941725,True,130,mm.png,myanmar,0.26835937499999996
321,2408630.638539995,1520.6608040025458,True,9,at.png,austria,0.20078125
322,2413371.3844930027,1254.3647979907691,True,172,sg.png,singapore,0.3
323,2424193.584366003,1728.5087159979157,True,74,gh.png,ghana,0.250390625
324,2429396.708510001,1640.3796059894376,True,172,sg.png,singapore,0.3
325,2434588.871688,1181.8810650003143,True,209,ye.png,yemen,0.3
326,2440069.828969994,2190.7805570079945,True,192,to.png,tonga,0.20078125
327,2445163.354767996,549.2030599997379,True,209,ye.png,yemen,0.3
328,2448917.087783993,2256.9834120078012,True,132,mo.png,macao,0.27460937500000004
329,2454265.500731999,871.9204219961539,True,53,ee.png,estonia,0.250390625
330,2458985.684553001,1076.8646989893168,True,157,pl.png,poland,0.3
331,2463279.206991996,1537.1505600051023,True,82,gw.png,guinea bissau,0.20078125
332,2469292.874741994,1277.2434770013206,True,157,pl.png,poland,0.3
333,2473519.925325003,1226.1154859880917,True,191,tn.png,tunisia,0.3
334,2479388.2867399952,1881.5452090059407,True,172,sg.png,singapore,0.250390625
335,2484752.946597,986.2364069996402,True,191,tn.png,tunisia,0.3
336,2489128.4498040043,1171.5224249926396,True,7,aq.png,antarctica,0.20078125
337,2494718.6564419973,1408.320905000437,True,209,ye.png,yemen,0.250390625
338,2499161.5676729996,1568.0151370037347,True,78,gn.png,guinea,0.390625
339,2503971.6412609997,1051.7145469929092,True,147,no.png,norway,0.3
340,2509473.4565069955,1545.000739003066,False,105,ki.png,kiribati,0.29999999999999993
341,2514587.6981070032,1025.5878439927474,True,147,no.png,norway,0.3
342,2519051.612433992,873.66761600459,True,157,pl.png,poland,0.250390625
343,2523022.6053669904,1224.350314005278,True,189,tl.png,timor leste,0.3
344,2532427.0288120024,1275.7218109909445,True,184,sz.png,eswatini,0.3
345,2542611.0222080024,628.4116589957848,True,189,tl.png,timor leste,0.3
346,2547681.249579997,481.7205300061032,True,184,sz.png,eswatini,0.3
347,2552246.0118040033,1304.111000994686,True,191,tn.png,tunisia,0.250390625
348,2557393.7675179914,1001.6190410098061,True,26,bt.png,bhutan,0.20078125
349,2561704.515107995,1161.179697999265,True,38,cm.png,cameroon,0.3
350,2571073.4618459973,1142.1495760004036,True,147,no.png,norway,0.250390625
351,2575429.9971879954,109.83148300182074,True,38,cm.png,cameroon,0.3
352,2579934.5494970037,1128.0272320001386,True,85,hn.png,honduras,0.3
353,2586420.737394001,1170.8433989989571,True,36,ck.png,cook islands,0.3
354,2593939.5210270016,777.4342289920896,True,85,hn.png,honduras,0.3
355,2598332.2641330017,1216.9219060014002,True,36,ck.png,cook islands,0.3
356,2603482.5080790035,1049.344772996381,True,189,tl.png,timor leste,0.250390625
357,2608905.6481970036,1431.1399879953824,True,184,sz.png,eswatini,0.250390625
358,2614134.9063239903,1101.9325100062415,True,105,ki.png,kiribati,0.250390625
359,2619625.257427993,1430.6144709992222,True,49,dm.png,dominica,0.20078125
360,2625097.260608003,2296.500876997132,True,136,mu.png,mauritius,0.20078125
361,2851371.014471995,8124.953428996261,False,38,cm.png,cameroon,0.29570312499999996
362,2861776.021664002,1290.593567987904,True,36,ck.png,cook islands,0.250390625
363,2867065.1568869944,800.1664420007728,True,85,hn.png,honduras,0.250390625
364,2871587.4782939935,1313.6100350096822,True,132,mo.png,macao,0.22500000000000006
365,2876367.3767209984,1270.731672004331,True,120,lu.png,luxembourg,0.20078125
366,2884531.3015650027,inf,False,20,bi.png,burundi,0.29999999999999993
367,2904899.3153560003,1072.9752350016497,True,204,ve.png,venezuela,0.20078125
368,2911453.739399003,12948.458772996906,False,74,gh.png,ghana,0.29999999999999993
369,2926683.1031269976,1505.3736760020256,True,209,ye.png,yemen,0.20078125
370,2931179.743967994,inf,True,172,sg.png,singapore,0.29999999999999993
371,2938396.450592001,1258.78174298862,True,157,pl.png,poland,0.20078125
372,2942755.9234279906,2218.9706920036115,True,163,ro.png,romania,0.29804687500000004
373,2948227.0963609917,1674.048144006636,True,17,bf.png,burkina faso,0.20078125
374,2955083.5070070024,1111.3616389920935,True,167,sa.png,saudi arabia,0.20078125
375,2960469.873488997,1595.9479900049046,True,191,tn.png,tunisia,0.20078125
376,2968844.6292439913,1686.8709650007077,True,38,cm.png,cameroon,0.2953125
377,2974451.9556229934,1138.3643980082124,True,147,no.png,norway,0.20078125
378,2979027.521073993,inf,True,78,gn.png,guinea,0.404296875
379,2985740.87971299,1170.5363020012155,True,20,bi.png,burundi,0.250390625
380,2990815.952744,933.1925180014223,True,90,ie.png,ireland,0.19999999999999998
381,2994806.0624219943,2128.730103009846,True,184,sz.png,eswatini,0.20078125
382,3003773.6863939934,1043.2115370058455,True,74,gh.png,ghana,0.250390625
383,3007787.408941993,1327.5926790083759,True,189,tl.png,timor leste,0.20078125
384,3012798.291275001,2787.257602002006,True,5,am.png,armenia,0.29960937500000007
385,3019466.9030259973,1253.7561679929495,True,172,sg.png,singapore,0.250390625
386,3025734.064527001,2852.8032219912857,True,56,er.png,eritrea,0.201171875
387,3031941.353272996,1128.984466006048,True,64,ga.png,gabon,0.3
388,3039505.627663995,1698.5350920003839,False,195,tv.png,tuvalu,0.3
389,3047541.0772339962,1736.8210489950143,True,64,ga.png,gabon,0.3
390,3052391.530219,348.20717899128795,False,195,tv.png,tuvalu,0.3
391,3055928.244028997,1297.2019720035605,True,50,do.png,dominican republic,0.3
392,3067834.5555580016,14250.097784999758,False,130,mm.png,myanmar,0.29374999999999996
393,3084361.0506659895,1119.9362710034475,True,50,do.png,dominican republic,0.3
394,3092364.914701,1434.1246429979801,True,13,ba.png,bosnia and herzegovina,0.3
395,3109166.223630993,2757.3409129981883,True,64,ga.png,gabon,0.324609375
396,3114989.973295,1106.780139001552,True,13,ba.png,bosnia and herzegovina,0.3
397,3123332.1310789906,1504.5055869994685,True,195,tv.png,tuvalu,0.250390625
398,3128440.243004996,2183.824635998346,True,78,gn.png,guinea,0.39140624999999996
399,3134093.7950869994,1245.089057003148,True,41,cr.png,costa rica,0.15117187499999998
400,3138923.4329419998,1222.5448239916004,False,50,do.png,dominican republic,0.349609375
401,3148663.4929439896,inf,True,199,ug.png,uganda,0.201171875
402,3155020.5726909917,2976.889097000938,True,122,ly.png,libya,0.275
403,3161168.850845992,1322.629419009667,True,106,km.png,comoros,0.3
404,3167467.7775469897,1099.6448350055143,True,13,ba.png,bosnia and herzegovina,0.250390625
405,3176848.563998996,1508.4309509983286,False,106,km.png,comoros,0.3
406,3189869.527828996,1881.05818600161,True,64,ga.png,gabon,0.275
407,3194835.6078979997,1061.9838729905896,True,50,do.png,dominican republic,0.30000000000000004
408,3202088.051978993,1957.5813160045072,True,38,cm.png,cameroon,0.246484375
409,3207720.5772309974,1172.2416609991342,True,36,ck.png,cook islands,0.20078125
410,3212522.166647992,873.2502580094151,True,85,hn.png,honduras,0.20078125
411,3216688.9184189932,1744.1981320008636,False,48,dk.png,denmark,0.201171875
412,3225888.162082003,995.7178799961694,True,95,ir.png,iran,0.15117187499999998
413,3229644.625532994,1521.4728179997765,True,106,km.png,comoros,0.250390625
414,3234429.125683993,1571.8959160004742,True,174,sk.png,slovakia,0.15117187499999998
415,3240181.923890996,1659.9299499937333,True,203,vc.png,saint vincent and the grenadines,0.3
416,3252905.663137004,1251.8675989997573,True,84,hk.png,hong kong,0.15117187499999998
417,3257558.0988049917,1085.6308170040138,True,203,vc.png,saint vincent and the grenadines,0.3
418,3267937.802400003,1252.368073998019,True,200,us.png,united states of america,0.15117187499999998
419,3277088.4588689953,1123.7407040023245,True,62,fo.png,faroe islands,0.3
420,3285534.0591339916,inf,True,31,cd.png,democratic republic of the congo,0.3
421,3300493.9702389967,1204.6139120063744,True,62,fo.png,faroe islands,0.3
422,3307005.7816479965,429.76481499522924,True,31,cd.png,democratic republic of the congo,0.3
423,3316637.2751669986,1255.8866299949586,False,203,vc.png,saint vincent and the grenadines,0.349609375
424,3325423.376420993,3275.9780860072933,True,130,mm.png,myanmar,0.318359375
425,3332954.713112995,6447.848911004141,True,33,cg.png,congo,0.201171875
426,3344304.9198049996,inf,True,10,au.png,australia,0.201171875
427,3350829.917891999,1179.3977939961478,True,173,si.png,slovenia,0.3
428,3358310.224475994,1112.1114529962651,True,62,fo.png,faroe islands,0.250390625
429,3363560.1929039983,904.8291520015337,True,173,si.png,slovenia,0.3
430,3368076.167510997,1021.9633130035363,True,203,vc.png,saint vincent and the grenadines,0.30000000000000004
431,3381111.18443399,1369.3873520097695,True,31,cd.png,democratic republic of the congo,0.250390625
432,3391098.375945003,1270.131081997417,True,5,am.png,armenia,0.2500000000000001
433,3395912.3333809986,1254.9924380001612,True,12,az.png,azerbaijan,0.28789062500000007
434,3401607.6032499988,1026.6818520030938,True,16,be.png,belgium,0.15117187499999998
435,3405917.599552995,1218.6659849975258,True,208,xk.png,kosovo,0.15117187499999998
436,3411623.8213679898,11381.315496008378,True,142,na.png,namibia,0.302734375
437,3427622.5977110006,888.2442990001291,True,173,si.png,slovenia,0.250390625
438,3432135.5202039992,1025.9327679960988,True,4,al.png,albania,0.15117187499999998
439,3437119.746183991,1121.8728740061633,True,88,hu.png,hungary,0.19960937500000006
440,3441759.609706991,1398.0675339992158,True,98,je.png,jersey,0.15117187499999998
441,3446635.3298619944,1076.9501379979774,True,186,tg.png,togo,0.15117187499999998
442,3450750.11942799,1260.426647000946,True,50,do.png,dominican republic,0.2503906250000001
443,3463698.1735890005,1892.923760998994,True,195,tv.png,tuvalu,0.20078125
444,3469456.343464,1137.6746579920873,True,24,br.png,brazil,0.3
445,3473879.638782004,1147.2182789873332,True,151,om.png,oman,0.3
446,3479960.9148689923,1124.1276500080712,True,24,br.png,brazil,0.3
447,3484264.0941010034,395.6599239897914,True,151,om.png,oman,0.3
448,3487514.542150995,1450.8473820020445,True,145,ni.png,nicaragua,0.15117187499999998
449,3494599.124044995,1103.0887759989128,True,94,iq.png,iraq,0.3
450,3501914.0369829983,1564.0928929932415,True,142,na.png,namibia,0.30234375
451,3506840.9084710004,1005.4738089963794,True,94,iq.png,iraq,0.3
452,3511929.974997998,1550.193265997339,True,130,mm.png,myanmar,0.29374999999999996
453,3517736.000128003,1949.9036769997329,True,122,ly.png,libya,0.250390625
454,3522922.806307004,1106.0169649864547,True,160,pw.png,palau,0.3
455,3528820.9603400026,1005.7506629964337,True,24,br.png,brazil,0.250390625
456,3533503.2001159997,1150.303868999239,True,160,pw.png,palau,0.3
457,3537927.7436940027,1307.931560994126,True,151,om.png,oman,0.250390625
458,3541978.369791992,2289.968900004402,True,13,ba.png,bosnia and herzegovina,0.20078125
459,3550434.9228339996,1566.2584120002575,True,78,gn.png,guinea,0.3785156249999999
460,3555314.615915995,1117.505128000863,True,37,cl.png,chile,0.159765625
461,3559622.9578560013,953.9243689943105,True,94,iq.png,iraq,0.250390625
462,3564064.748044999,1403.0222110012546,False,153,pe.png,peru,0.201171875
463,3569035.267537998,inf,True,106,km.png,comoros,0.29999999999999993
464,3576253.15032099,1167.9330590125173,True,53,ee.png,estonia,0.20078125
465,3580631.8873349954,1173.701407999266,False,149,nr.png,nauru,0.3
466,3586436.4794389987,1041.170939992182,True,160,pw.png,palau,0.250390625
467,3590866.58169399,687.6375900027342,False,149,nr.png,nauru,0.3
468,3595933.91041999,4345.308179006446,True,64,ga.png,gabon,0.324609375
469,3603347.2382359905,1453.8909830008633,True,166,rw.png,rwanda,0.15117187499999998
470,3608648.086895002,1021.7809739988297,True,66,gb-eng.png,england,0.3
471,3613105.449911993,1399.4740199996158,True,203,vc.png,saint vincent and the grenadines,0.2503906250000001
472,3622748.8377539995,1005.883182995487,True,66,gb-eng.png,england,0.3
473,3627020.7335209996,inf,True,175,sl.png,sierra leone,0.250390625
474,3635702.437462998,1001.1933149946854,True,165,ru.png,russia,0.3
475,3640070.363849998,2561.96470999578,True,149,nr.png,nauru,0.32539062499999993
476,3646874.313348992,2189.2827870030887,True,165,ru.png,russia,0.3
477,3652223.8253209945,1142.9853370063938,True,27,bw.png,botswana,0.3
478,3659396.8677219963,1007.0907079936005,True,100,jo.png,jordan,0.3
479,3666493.761124992,995.4767430024222,True,27,bw.png,botswana,0.3
480,3671073.5864849994,2285.0944509990513,True,100,jo.png,jordan,0.3
481,3676662.577089999,950.0495819961652,True,66,gb-eng.png,england,0.250390625
482,3680655.3271110025,1373.1564759942703,True,106,km.png,comoros,0.29960937499999996
483,3686235.9567359965,1663.4875379968435,True,64,ga.png,gabon,0.275
484,3691091.223284995,1316.056138006039,True,72,gf.png,french guiana,0.3
485,3707170.2375780004,1233.2326909964904,True,165,ru.png,russia,0.250390625
486,3711601.8169649905,963.5082419989631,True,72,gf.png,french guiana,0.3
487,3718053.811698992,1641.5221780044958,True,149,nr.png,nauru,0.3218749999999999
488,3723170.0371749904,1062.9957290072925,True,27,bw.png,botswana,0.250390625
489,3728010.0530939964,1322.6433090022765,True,100,jo.png,jordan,0.250390625
490,3732621.0032929955,2710.8174750031903,True,62,fo.png,faroe islands,0.25078124999999996
491,3739824.949554997,1496.6422480065376,True,138,mw.png,malawi,0.15351562499999996
492,3744709.674782993,1552.062303002458,True,45,cz.png,czechia,0.3
493,3751351.656336992,inf,True,31,cd.png,democratic republic of the congo,0.25078124999999996
494,3773406.6597329946,1117.2618209966458,True,45,cz.png,czechia,0.3
495,3778342.086828998,1519.665554995183,True,72,gf.png,french guiana,0.250390625
496,3784914.130424004,1145.6626509893686,True,173,si.png,slovenia,0.20078125
497,3789893.079709,1159.32389900228,True,21,bj.png,benin,0.3
498,3796153.5113049904,1207.5021769995801,True,2,af.png,afghanistan,0.3
499,3803882.630246997,477.61913400609046,True,21,bj.png,benin,0.3
500,3807450.93296899,899.3231820059009,True,2,af.png,afghanistan,0.3
501,3812763.2656649947,2116.542311996687,True,8,ar.png,argentina,0.15117187499999998
502,3819247.247833002,950.7000859887339,True,70,gd.png,grenada,0.3
503,3826173.980817999,1174.4185489951633,True,45,cz.png,czechia,0.250390625
504,3831482.729761992,913.153159010224,True,70,gd.png,grenada,0.3
505,3836073.1596389962,1118.3356349933892,True,176,sm.png,san marino,0.3
506,3843494.8790969937,1283.5982469986193,True,24,br.png,brazil,0.20078125
507,3848380.413375999,406.94041999801993,True,176,sm.png,san marino,0.3
508,3852733.220447,1473.105993995443,True,149,nr.png,nauru,0.27226562499999996
509,3857697.7174810017,949.645007989835,True,21,bj.png,benin,0.250390625
510,3861650.041240995,808.1817850037478,True,2,af.png,afghanistan,0.250390625
511,3866547.139900998,13870.101692999247,False,151,om.png,oman,0.29999999999999993
512,3887713.7821709914,1276.8059980003163,True,70,gd.png,grenada,0.250390625
513,3893229.244481001,inf,True,142,na.png,namibia,0.30585937500000004
514,3906240.9978009965,1193.3745900020003,True,176,sm.png,san marino,0.250390625
515,3911190.3197469944,1636.0052439998835,True,94,iq.png,iraq,0.20078125
516,3916190.2754039913,inf,True,160,pw.png,palau,0.29999999999999993
517,3922268.6142159947,2067.4501600004733,True,97,it.png,italy,0.171484375
518,3927640.4527029954,1178.2749279956333,True,159,pt.png,portugal,0.3
519,3933738.469197997,1197.2289060065523,True,42,cu.png,cuba,0.3
520,3940804.6281299903,1469.6198500022292,True,159,pt.png,portugal,0.3
521,3946100.5527059897,502.79657800262794,True,42,cu.png,cuba,0.3
522,3949853.920010995,1583.5595200043172,True,106,km.png,comoros,0.24999999999999997
523,3954999.4918750017,1301.650237001013,True,168,sb.png,solomon islands,0.3
524,3962244.695955,1177.7211000006646,True,151,om.png,oman,0.250390625
525,3966392.1797469957,536.6907499991357,True,168,sb.png,solomon islands,0.3
526,3971160.265394996,1032.4755150065757,True,114,lc.png,saint lucia,0.3
527,3981005.2883789903,2705.2299650097266,True,59,fi.png,finland,0.201171875
528,3986841.4037920013,331.8199119963683,False,114,lc.png,saint lucia,0.3
529,3991200.541705999,4329.168021998834,True,159,pt.png,portugal,0.349609375
530,3999007.0856329985,1387.594336993061,False,42,cu.png,cuba,0.349609375
531,4003219.8886599946,1170.6402590060607,True,201,uy.png,uruguay,0.16953124999999994
532,4008816.049989997,1161.5039360038936,True,19,bh.png,bahrain,0.3
533,4015470.564684991,1426.8461739993654,True,160,pw.png,palau,0.250390625
534,4020337.8231529933,1132.4763489975594,True,19,bh.png,bahrain,0.3
535,4025148.0807589977,1270.1224829945713,True,168,sb.png,solomon islands,0.250390625
536,4030732.9529699925,4184.291302008554,False,66,gb-eng.png,england,0.29999999999999993
537,4040930.3999859984,879.3966380036436,True,159,pt.png,portugal,0.30000000000000004
538,4045292.2217809972,1120.494849994313,True,114,lc.png,saint lucia,0.250390625
539,4266884.55344399,2514.2075220067054,True,42,cu.png,cuba,0.30000000000000004
540,4272507.893761998,5038.624156994745,False,19,bh.png,bahrain,0.29960937499999996
541,4284619.490944998,1405.065482002683,True,66,gb-eng.png,england,0.250390625
542,4289404.177805001,4402.149686997756,True,165,ru.png,russia,0.29374999999999996
543,4297019.114137001,4291.477110994048,True,100,jo.png,jordan,0.29374999999999996
544,4304902.325677991,1302.8272119993344,True,27,bw.png,botswana,0.20078125
545,4309973.305211999,3604.20656300243,True,72,gf.png,french guiana,0.2875
546,4318737.898210995,950.882142001763,True,2,af.png,afghanistan,0.20078125
547,4323983.143424004,1279.5650649927557,True,21,bj.png,benin,0.20078125
548,4329747.532387002,1444.4552609929815,True,70,gd.png,grenada,0.20078125
549,4336708.495051993,2430.2892569974065,True,45,cz.png,czechia,0.20078125
550,4343465.368160993,2275.220551003702,True,176,sm.png,san marino,0.2125
551,4350130.716530999,1266.4439539946616,True,159,pt.png,portugal,0.2503906250000001
552,4356750.900850995,inf,False,74,gh.png,ghana,0.29999999999999993
553,4380121.407523999,1461.7011999944225,True,19,bh.png,bahrain,0.29765624999999996
554,4385205.740345001,1453.8195770010352,True,172,sg.png,singapore,0.20078125
555,4390175.204416999,1424.4267030013725,True,20,bi.png,burundi,0.20078125
556,4395227.836349994,1306.1764779994264,True,165,ru.png,russia,0.26445312499999996
557,4399586.936327993,1342.2716409983113,True,62,fo.png,faroe islands,0.20117187499999997
558,4406202.543591004,1246.89699198585,True,100,jo.png,jordan,0.28007812499999996
559,4410904.458075995,inf,True,168,sb.png,solomon islands,0.29999999999999993
560,4420133.178556004,1504.0127219976857,True,78,gn.png,guinea,0.32890624999999996
561,4425040.676466,3977.8614149978384,True,31,cd.png,democratic republic of the congo,0.3003906249999999
562,4438127.008302996,1339.449357997626,True,132,mo.png,macao,0.17539062500000005
563,4442507.752231002,1354.8462459873408,True,114,lc.png,saint lucia,0.20078125
564,4448089.060489991,1409.364359001629,True,40,co.png,colombia,0.16328124999999996
565,4453250.453991991,993.7125330027193,True,74,gh.png,ghana,0.29960937499999996
566,4457468.582464004,1390.8148319898173,True,72,gf.png,french guiana,0.237890625
567,4463897.009954002,4480.895485991612,True,142,na.png,namibia,0.3125
568,4472540.656557001,1843.0425699912012,True,42,cu.png,cuba,0.25898437500000004
569,4477485.666755995,1940.9654350019991,True,126,me.png,montenegro,0.160546875
570,4484630.765145994,4095.2592179961503,True,130,mm.png,myanmar,0.33476562499999996
571,4492082.731960996,inf,True,212,zw.png,zimbabwe,0.201171875
572,4499098.338419004,1104.7778379870579,True,80,gr.png,greece,0.15117187499999998
573,4504950.936526002,1328.1673960005865,True,168,sb.png,solomon islands,0.250390625
574,4510762.2551690005,1738.9671839913353,True,149,nr.png,nauru,0.22265624999999997
575,4516716.872088,1932.6587099926546,True,31,cd.png,democratic republic of the congo,0.29999999999999993
576,4529216.239300993,1450.4909380050376,True,58,et.png,ethiopia,0.3
577,4536256.02740499,1319.259057010524,False,65,gb.png,united kingdom,0.3
578,4543828.212993002,3147.1428439980373,True,58,et.png,ethiopia,0.3
579,4552690.892468003,1469.3531050002202,True,65,gb.png,united kingdom,0.3
580,4559152.710246999,1062.4554569954053,True,96,is.png,iceland,0.3
581,4565509.102245997,1410.7997350068763,True,130,mm.png,myanmar,0.334375
582,4570749.334533,1057.4304850017652,True,96,is.png,iceland,0.3
583,4575191.355835996,1219.5294950073585,True,125,md.png,moldova,0.3
584,4584753.874474991,1999.6704280050471,True,158,ps.png,palestine,0.16679687499999998
585,4591358.872338998,401.05503700021654,True,125,md.png,moldova,0.3
586,4595397.409233992,1476.5739420112222,True,58,et.png,ethiopia,0.250390625
587,4600381.499055002,1485.574560996145,True,19,bh.png,bahrain,0.24804687499999997
588,4605481.184090997,1163.499963004142,True,65,gb.png,united kingdom,0.250390625
589,4611440.102495995,4291.368189995177,True,64,ga.png,gabon,0.324609375
590,4618974.620576002,1932.6706540016457,True,163,ro.png,romania,0.29765625000000007
591,4624624.954225001,1283.3224569913,True,96,is.png,iceland,0.250390625
592,4629304.029513994,1006.0961990095675,True,148,np.png,nepal,0.15117187499999998
593,4633575.117155997,1113.833865005523,True,178,so.png,somalia,0.3
594,4639245.113201003,1265.1195569923148,True,207,ws.png,samoa,0.3

