trial,start_time,rt,correct,fact_id,question,answer,alpha
1,30776.436100000865,1007.8028999996604,True,97,it.png,italy,0.3
2,34567.2373999987,907.8484000056051,True,97,it.png,italy,0.3
3,38189.54040000972,773.0879999871831,True,146,nl.png,netherlands,0.3
4,42512.983599997824,828.7008000042988,True,146,nl.png,netherlands,0.3
5,47160.730200004764,1079.3952999956673,True,22,bn.png,brunei,0.3
6,51591.502900002524,1003.4180999937234,True,81,gt.png,guatemala,0.3
7,55882.81979999738,1050.747200002661,True,22,bn.png,brunei,0.3
8,59954.02469999681,986.8090000090888,True,81,gt.png,guatemala,0.3
9,64196.71709999966,919.556000008015,True,192,to.png,tonga,0.3
10,67938.40780000028,1323.1521999987308,True,134,mr.png,mauritania,0.3
11,74104.27540000819,861.3844999927096,True,192,to.png,tonga,0.3
12,78053.38900000788,2142.1890999918105,True,134,mr.png,mauritania,0.3
13,83692.54820000788,910.2415999950608,True,97,it.png,italy,0.250390625
14,87349.15979999641,795.5108000023756,True,146,nl.png,netherlands,0.250390625
15,91661.20220000448,1003.2710999948904,True,152,pa.png,panama,0.3
16,95847.7639000048,745.4953999986174,True,122,ly.png,libya,0.3
17,99881.17550000607,1421.0944999940693,True,152,pa.png,panama,0.3
18,104517.48540000699,911.1408000026131,True,122,ly.png,libya,0.3
19,108583.94599999883,1494.3914000032237,False,22,bn.png,brunei,0.349609375
20,114410.6829000084,1337.6965999923414,True,81,gt.png,guatemala,0.250390625
21,118927.30260000098,910.8591999975033,True,9,at.png,austria,0.3
22,122876.96680000226,975.8068999944953,True,192,to.png,tonga,0.250390625
23,126762.2424000001,801.3781000045128,True,9,at.png,austria,0.3
24,130545.34199999762,1532.2277000086615,False,134,mr.png,mauritania,0.349609375
25,134374.93400000676,824.492999992799,True,161,py.png,paraguay,0.3
26,138883.60090000788,1081.7037999950117,True,62,fo.png,faroe islands,0.3
27,143762.40510000207,3172.041400001035,False,161,py.png,paraguay,0.3
28,149223.88620000856,1128.696100000525,False,62,fo.png,faroe islands,0.3
29,153278.79900000698,971.167499999865,True,152,pa.png,panama,0.250390625
30,157200.2918000071,1064.9266999971587,True,22,bn.png,brunei,0.30000000000000004
31,161566.93929999892,1534.4813999981852,True,122,ly.png,libya,0.250390625
32,166142.69839999906,1615.5317000084324,True,133,mq.png,martinique,0.3
33,171182.9824000015,1086.8770999950357,True,134,mr.png,mauritania,0.30000000000000004
34,176075.3612999979,1548.5176000074716,False,133,mq.png,martinique,0.3
35,179912.64920000685,771.720099990489,True,9,at.png,austria,0.250390625
36,183851.58539999975,854.2796999972779,True,156,pk.png,pakistan,0.3
37,187919.91389999748,2589.6760000032373,False,107,kn.png,saint kitts and nevis,0.3
38,192806.4102000062,1732.676799991168,True,156,pk.png,pakistan,0.3
39,197844.1615000047,1169.6317000023555,False,107,kn.png,saint kitts and nevis,0.3
40,203401.838100006,1506.3472999900114,True,161,py.png,paraguay,0.250390625
41,208027.36130000267,1431.9797000061953,True,62,fo.png,faroe islands,0.250390625
42,213058.75500000548,988.0152999976417,True,119,lt.png,lithuania,0.3
43,217271.49980000104,1002.003200002946,True,50,do.png,dominican republic,0.3
44,224525.2732000081,1494.073699999717,True,119,lt.png,lithuania,0.3
45,229119.14370000886,916.5041999949608,True,50,do.png,dominican republic,0.3
46,234174.14650000865,4120.603899995331,False,133,mq.png,martinique,0.349609375
47,240588.39920000173,750.9215000027325,True,156,pk.png,pakistan,0.250390625
48,244471.7851000023,1184.73449999874,True,203,vc.png,saint vincent and the grenadines,0.3
49,252158.3818000072,3114.1351999976905,False,107,kn.png,saint kitts and nevis,0.349609375
50,261123.69700000272,1625.391599998693,True,203,vc.png,saint vincent and the grenadines,0.3
51,269743.30460000783,1668.0407999956515,True,169,sc.png,seychelles,0.3
52,274815.86750000133,799.3076999991899,True,119,lt.png,lithuania,0.250390625
53,278863.3225000085,1099.562799994601,True,169,sc.png,seychelles,0.3
54,283757.79709999915,1475.0867999973707,False,133,mq.png,martinique,0.39921874999999996
55,288816.5177000046,1416.7865000054007,True,50,do.png,dominican republic,0.250390625
56,294853.03920001024,2744.174399995245,False,107,kn.png,saint kitts and nevis,0.39921874999999996
57,302289.78550000465,747.6682999986224,True,153,pe.png,peru,0.3
58,305722.30619999755,1071.6443999990588,True,92,im.png,isle of man,0.3
59,310541.37370000535,770.5444000021089,True,153,pe.png,peru,0.3
60,313889.51360000647,882.881899990025,True,92,im.png,isle of man,0.3
61,318358.873899997,1105.505900006392,False,133,mq.png,martinique,0.4488281249999999
62,323187.571500006,1460.3972000040812,True,203,vc.png,saint vincent and the grenadines,0.250390625
63,330771.138600001,16806.607699996675,False,107,kn.png,saint kitts and nevis,0.4488281249999999
64,353750.17919999664,1271.9354000000749,True,133,mq.png,martinique,0.44843749999999993
65,362804.7391,928.1167000008281,True,169,sc.png,seychelles,0.250390625
66,367656.44109999994,2755.4914000065764,False,107,kn.png,saint kitts and nevis,0.4742187499999999
67,377050.19550000725,1303.819199994905,True,153,pe.png,peru,0.250390625
68,381059.8974000022,833.1401000032201,True,92,im.png,isle of man,0.250390625
69,385481.00110000814,897.4462999904063,True,97,it.png,italy,0.20078125
70,389159.5699000027,448.697900006664,True,107,kn.png,saint kitts and nevis,0.4707031249999999
71,394011.09110000834,1413.1768999941414,True,146,nl.png,netherlands,0.20078125
72,398733.01759999595,1787.2981000109576,True,133,mq.png,martinique,0.414453125
73,406445.0216999976,3285.835100003169,True,22,bn.png,brunei,0.34882812500000004
74,412890.88069999707,31468.72710000025,False,134,mr.png,mauritania,0.349609375
75,447372.68060000497,inf,False,107,kn.png,saint kitts and nevis,0.515625
76,474987.0823000092,1660.236600000644,True,81,gt.png,guatemala,0.20078125
77,479962.3844000016,907.6873000012711,True,107,kn.png,saint kitts and nevis,0.515234375
78,485308.5091999965,1226.4091000106419,True,22,bn.png,brunei,0.34843750000000007
79,489461.9187000062,2590.935999993235,True,134,mr.png,mauritania,0.37421875000000004
80,495571.89020000806,853.5977999999886,True,192,to.png,tonga,0.20078125
81,499187.2085000068,inf,True,152,pa.png,panama,0.29999999999999993
82,506654.16910000204,1321.9603000034112,True,107,kn.png,saint kitts and nevis,0.46562500000000007
83,516450.3924000019,1053.963800004567,True,133,mq.png,martinique,0.36796874999999996
84,524214.85050000774,1380.5751999898348,True,122,ly.png,libya,0.20078125
85,528678.6987000087,2068.0155999871204,True,9,at.png,austria,0.20625
86,534083.2823000092,1067.655899998499,True,161,py.png,paraguay,0.20078125
87,539382.0097999997,1420.7507000101032,True,62,fo.png,faroe islands,0.20078125
88,544843.363699998,1505.7378000055905,True,58,et.png,ethiopia,0.3
89,550339.0371999994,1045.3621000051498,True,156,pk.png,pakistan,0.20078125
90,554748.2458000013,1602.1734999958426,True,58,et.png,ethiopia,0.3
91,560199.1765999992,1708.4694000077434,True,134,mr.png,mauritania,0.355859375
92,566622.2618000029,1111.9055000017397,True,64,ga.png,gabon,0.3
93,570776.2818000047,964.8015999991912,True,11,aw.png,aruba,0.3
94,574889.4663000101,1208.3371999906376,True,64,ga.png,gabon,0.3
95,578995.2128000004,872.1881000092253,True,11,aw.png,aruba,0.3
96,582746.5761000058,1096.82310000062,True,130,mm.png,myanmar,0.3
97,588568.1639999966,2878.7634000036633,True,152,pa.png,panama,0.322265625
98,594526.4740999992,2476.7233000020497,False,130,mm.png,myanmar,0.3
99,599297.9383000056,1054.8427000030642,True,119,lt.png,lithuania,0.20078125
100,603662.722100009,4998.684699996375,True,58,et.png,ethiopia,0.349609375
101,612027.0450000098,1031.515099995886,True,107,kn.png,saint kitts and nevis,0.4160156250000001
102,621399.4518999971,inf,True,50,do.png,dominican republic,0.29999999999999993
103,629988.6350000015,1238.888499996392,True,64,ga.png,gabon,0.250390625
104,634161.5212000033,1297.962099997676,True,11,aw.png,aruba,0.250390625
105,638392.1819000097,2719.3011999916052,True,22,bn.png,brunei,0.3496093750000001
106,644405.7729000051,1578.8782000017818,False,130,mm.png,myanmar,0.349609375
107,648278.2570999989,1165.7659000047715,True,58,et.png,ethiopia,0.30000000000000004
108,653103.2285999972,1152.8636000002734,True,160,pw.png,palau,0.3
109,657368.6120000057,1073.072700004559,True,158,ps.png,palestine,0.3
110,661813.3858000074,1490.6241999997292,False,160,pw.png,palau,0.3
111,665595.2706000098,964.5478999882471,True,158,ps.png,palestine,0.3
112,669865.976400004,839.1716000041924,True,164,rs.png,serbia,0.3
113,673735.7332999964,1461.147100009839,True,203,vc.png,saint vincent and the grenadines,0.20078125
114,683526.0237000039,669.3472000042675,True,164,rs.png,serbia,0.3
115,687258.4165000007,1549.4625999999698,True,130,mm.png,myanmar,0.34921875
116,692047.1182000038,1162.8313999972306,True,169,sc.png,seychelles,0.20078125
117,697568.3334000059,854.3224000022747,True,153,pe.png,peru,0.20078125
118,701015.7142000098,989.1960999957519,True,92,im.png,isle of man,0.20078125
119,705456.8691000022,1044.7361999977147,True,100,jo.png,jordan,0.3
120,709564.7470999975,712.5746000092477,True,160,pw.png,palau,0.250390625
121,713313.1950999959,5375.37570000859,True,100,jo.png,jordan,0.3
122,721474.6589999995,1404.55180000572,True,158,ps.png,palestine,0.250390625
123,726184.3378000049,inf,True,152,pa.png,panama,0.32265625
124,731644.713200003,1448.4519999969052,True,50,do.png,dominican republic,0.250390625
125,737262.5425000006,705.1197999971919,True,164,rs.png,serbia,0.250390625
126,741138.3215000096,1313.7674999888986,True,5,am.png,armenia,0.3
127,745713.3752000082,1169.1567999951076,True,197,tz.png,tanzania,0.3
128,750597.1468000062,775.9490000025835,False,5,am.png,armenia,0.3
129,754741.226099999,4993.0354000098305,False,197,tz.png,tanzania,0.3
130,762030.0095999992,1475.6075000041164,True,100,jo.png,jordan,0.250390625
131,766495.0858000084,inf,True,134,mr.png,mauritania,0.35624999999999996
132,775944.7123999998,6430.178800001158,False,130,mm.png,myanmar,0.398828125
133,784668.0485999968,924.478300003102,True,91,il.png,israel,0.3
134,788986.7857000063,784.0951999969548,True,113,lb.png,lebanon,0.3
135,792784.8850000009,871.4404000056675,True,91,il.png,israel,0.3
136,798105.7438999997,962.8929000027711,True,113,lb.png,lebanon,0.3
137,802198.7892000034,816.745300006005,False,5,am.png,armenia,0.349609375
138,806476.4434999961,936.7586000007577,True,197,tz.png,tanzania,0.250390625
139,810609.976000007,4203.7501000013435,False,133,mq.png,martinique,0.36835937499999993
140,817106.0622000077,3435.210999989067,False,130,mm.png,myanmar,0.44765625
141,822834.3421000027,1234.5700000005309,True,22,bn.png,brunei,0.30000000000000016
142,827234.6974999964,1149.515600001905,True,142,na.png,namibia,0.3
143,831373.7175999995,1150.9861000085948,True,71,ge.png,georgia,0.3
144,837233.4116999991,1602.7624999987893,False,142,na.png,namibia,0.3
145,842143.1015999988,890.5252000113251,True,71,ge.png,georgia,0.3
146,846129.251899998,2039.8821999988286,True,130,mm.png,myanmar,0.435546875
147,851960.1747999986,747.8054000093834,True,91,il.png,israel,0.250390625
148,855770.2153999999,2035.7597999973223,False,5,am.png,armenia,0.39921874999999996
149,861590.3986000048,1015.3820999985328,True,113,lb.png,lebanon,0.250390625
150,865639.2978000076,1265.791400001035,False,107,kn.png,saint kitts and nevis,0.46562500000000007
151,872556.2489000004,1296.7921000090428,True,187,th.png,thailand,0.3
152,876944.9025000067,1130.9677999961423,True,58,et.png,ethiopia,0.2503906250000001
153,881558.8706999988,12276.208600000245,False,187,th.png,thailand,0.3
154,896129.7791999968,1436.5697000030195,True,5,am.png,armenia,0.398828125
155,900489.4664000021,3575.8919000072638,False,142,na.png,namibia,0.349609375
156,906359.8971000029,1248.294100005296,True,107,kn.png,saint kitts and nevis,0.4160156250000001
157,915486.1157999985,757.9764000111027,True,71,ge.png,georgia,0.250390625
158,919144.5754000015,1409.8132000071928,True,130,mm.png,myanmar,0.41093749999999996
159,923584.090999997,1215.345900011016,True,10,au.png,australia,0.3
160,928063.0759000051,957.1445000037784,True,20,bi.png,burundi,0.3
161,932891.611900006,1047.32499999227,True,10,au.png,australia,0.3
162,937117.3608999961,1074.6864000102505,True,20,bi.png,burundi,0.3
163,942333.922100006,1596.6362000035588,True,187,th.png,thailand,0.250390625
164,947254.434500006,5997.847599996021,True,142,na.png,namibia,0.39921874999999996
165,956353.7520999962,1486.7871000024024,True,5,am.png,armenia,0.3984375
166,960827.5890000077,2723.18479999376,True,64,ga.png,gabon,0.26249999999999996
167,966410.7070000027,4004.747099999804,False,11,aw.png,aruba,0.29999999999999993
168,972710.1772000024,1574.4641000055708,True,152,pa.png,panama,0.322265625
169,977259.8360999982,1824.6232000092277,True,142,na.png,namibia,0.398828125
170,982099.7823000071,691.6925999976229,True,10,au.png,australia,0.250390625
171,986318.0138000025,2869.5986999955494,True,20,bi.png,burundi,0.349609375
172,992442.953100006,1344.0877999964869,False,134,mr.png,mauritania,0.38164062499999996
173,998102.9829000036,1404.575799999293,False,73,gg.png,guernsey,0.3
174,1003996.9829000038,inf,True,60,fj.png,fiji,0.3
175,1008889.5778000006,979.9476000043796,True,73,gg.png,guernsey,0.3
176,1013518.9453000057,1165.641500003403,True,60,fj.png,fiji,0.3
177,1017570.1554999978,797.3175000079209,True,160,pw.png,palau,0.20078125
178,1021267.3651000077,812.4551999935647,True,165,ru.png,russia,0.3
179,1025020.703000002,1188.0564000020968,True,25,bs.png,bahamas,0.3
180,1029501.8096999993,1122.287400008645,True,165,ru.png,russia,0.3
181,1033868.736400007,1397.9002999985823,True,25,bs.png,bahamas,0.3
182,1038427.3856000073,1015.8949999895412,True,20,bi.png,burundi,0.30000000000000004
183,1042629.764199999,3664.9305000028107,True,142,na.png,namibia,0.44843749999999993
184,1049466.6016999981,1879.6941000036895,True,5,am.png,armenia,0.34882812500000004
185,1054269.1635000082,1602.9557000002824,False,130,mm.png,myanmar,0.4488281249999999
186,1058981.2926000012,2243.5026000021026,True,133,mq.png,martinique,0.3453124999999999
187,1067510.8777999994,2209.7821000060067,True,73,gg.png,guernsey,0.262109375
188,1073385.3722000057,1163.345099994447,True,142,na.png,namibia,0.40507812499999996
189,1077697.9494999978,1198.3815999992657,True,60,fj.png,fiji,0.250390625
190,1081846.5380999986,1710.7372000028845,True,158,ps.png,palestine,0.20078125
191,1086861.5235000034,914.5130999968387,True,165,ru.png,russia,0.250390625
192,1090686.930900003,5039.300200005528,True,11,aw.png,aruba,0.324609375
193,1098541.1311000062,inf,True,25,bs.png,bahamas,0.349609375
194,1107883.712900002,1786.5418000002392,True,130,mm.png,myanmar,0.40546874999999993
195,1113024.3982999963,9297.370100001106,False,134,mr.png,mauritania,0.42656249999999996
196,1128794.9155000097,1284.6010999928694,True,100,jo.png,jordan,0.20078125
197,1133268.7382000005,787.8829999971204,True,164,rs.png,serbia,0.20078125
198,1137379.1674000095,1220.5342999950517,True,197,tz.png,tanzania,0.20078125
199,1143204.2963999994,1308.9196000071242,True,25,bs.png,bahamas,0.30000000000000004
200,1147494.338500008,6307.400499994401,True,134,mr.png,mauritania,0.43085937499999993
201,1158683.2237000053,875.1368999946862,True,91,il.png,israel,0.20078125
202,1162712.0991999982,1137.5791000027675,True,107,kn.png,saint kitts and nevis,0.36640625000000016
203,1170179.4724000064,1054.4055999927223,True,183,sy.png,syria,0.3
204,1174114.164700004,1436.023899994325,True,29,bz.png,belize,0.3
205,1178674.5706000074,1011.8904999981169,True,183,sy.png,syria,0.3
206,1182577.283999999,1218.2007000083104,True,29,bz.png,belize,0.3
207,1186824.7076999978,908.4406000038143,True,113,lb.png,lebanon,0.20078125
208,1190818.39510001,2555.483799995389,True,142,na.png,namibia,0.41796875
209,1196442.716100006,1290.9732999978587,True,86,hr.png,croatia,0.3
210,1201064.0359000098,2998.312799987849,True,11,aw.png,aruba,0.32499999999999996
211,1206874.359499998,885.1818000110798,False,86,hr.png,croatia,0.3
212,1210871.4471999994,833.811200005468,True,6,ao.png,angola,0.3
213,1214695.348299996,1276.059499999974,True,134,mr.png,mauritania,0.43046874999999996
214,1222658.7956000003,1328.105599997798,True,6,ao.png,angola,0.3
215,1226888.8841000008,1140.8687000074424,True,183,sy.png,syria,0.250390625
216,1460517.1374000055,1484.0208999959286,True,29,bz.png,belize,0.250390625
217,1465010.3469000023,2528.954499997897,True,86,hr.png,croatia,0.250390625
218,1472771.3164000015,1191.2699999955948,True,6,ao.png,angola,0.250390625
219,1476895.5284999975,2024.8644000093918,True,142,na.png,namibia,0.36835937500000004
220,1481905.852900003,1090.6812000030186,True,134,mr.png,mauritania,0.426171875
221,1487871.3502000028,5435.715200001141,False,20,bi.png,burundi,0.33710937500000004
222,1495604.5785000024,1792.3098000029568,True,130,mm.png,myanmar,0.36601562499999996
223,1500607.4393000016,1638.3336000000127,True,187,th.png,thailand,0.20078125
224,1505532.6786000077,1080.213399996981,True,71,ge.png,georgia,0.20078125
225,1509808.7570000063,5432.154699999839,False,73,gg.png,guernsey,0.30859375
226,1517533.2557000075,830.5678999894299,True,10,au.png,australia,0.20078125
227,1522185.3008000036,1350.9641999988817,True,25,bs.png,bahamas,0.2503906250000001
228,1526827.3730000074,1874.3735999886412,True,152,pa.png,panama,0.321875
229,1531850.3744000045,1645.2993999992032,True,5,am.png,armenia,0.2992187500000001
230,1536621.316100005,1290.3366999961436,True,64,ga.png,gabon,0.21289062499999997
231,1540888.193400009,955.9338999972679,True,165,ru.png,russia,0.20078125
232,1544755.8150999974,17816.963300007163,True,11,aw.png,aruba,0.36210937499999996
233,1565441.6322000034,1371.929600005271,True,60,fj.png,fiji,0.20078125
234,1569696.4013999968,1326.9778000104707,True,20,bi.png,burundi,0.33671875000000007
235,1574120.0776000042,1452.346099991817,True,134,mr.png,mauritania,0.3765625
236,1583948.2744999987,1408.204300008947,True,183,sy.png,syria,0.20078125
237,1588122.2463000012,inf,False,73,gg.png,guernsey,0.310546875
238,1595995.6572000082,1662.465000001248,False,133,mq.png,martinique,0.39492187499999987
239,1602196.7358999974,1148.6947000082582,True,11,aw.png,aruba,0.36171875
240,1606134.5489000087,940.0577999912202,True,39,cn.png,china,0.3
241,1609823.0161000101,1488.5010999860242,False,178,so.png,somalia,0.3
242,1614416.5079000085,832.6620000009425,True,39,cn.png,china,0.3
243,1618055.748300001,671.1308999948669,True,178,so.png,somalia,0.3
244,1621805.0504999992,938.1909000074957,True,53,ee.png,estonia,0.3
245,1626054.931000006,1011.7436000001617,True,69,gb-wls.png,wales,0.3
246,1630018.512399998,799.4645000000019,True,53,ee.png,estonia,0.3
247,1634080.4156000086,1149.9069999989588,True,69,gb-wls.png,wales,0.3
248,1638258.1343000056,1136.448999997694,True,133,mq.png,martinique,0.3453124999999999
249,1644345.8216,878.8805000076536,True,38,cm.png,cameroon,0.3
250,1648956.4003999985,inf,True,205,vn.png,vietnam,0.3
251,1654879.1230000062,1007.9175999998115,True,38,cm.png,cameroon,0.3
252,1659397.782500004,1440.987499998184,True,205,vn.png,vietnam,0.3
253,1664820.9459000062,737.359999999404,True,39,cn.png,china,0.250390625
254,1668365.932200002,990.1194999986328,True,178,so.png,somalia,0.250390625
255,1672541.377500005,947.6716999926139,True,124,mc.png,monaco,0.3
256,1676681.7337000102,867.9565999920014,True,53,ee.png,estonia,0.250390625
257,1680760.6682000041,5217.52629999537,False,124,mc.png,monaco,0.3
258,1689060.0650999986,792.5407000002451,True,69,gb-wls.png,wales,0.250390625
259,1692637.2306999983,1337.2617999995127,True,1,ae.png,united arab emirates,0.3
260,1698776.503000001,1051.4129000075627,True,208,xk.png,kosovo,0.3
261,1702848.6743999966,1142.6047999993898,True,1,ae.png,united arab emirates,0.3
262,1708421.4894000033,998.9399000040721,True,208,xk.png,kosovo,0.3
263,1712340.6355000043,848.6343999975361,True,38,cm.png,cameroon,0.250390625
264,1716462.1212000055,1627.5516000024509,True,205,vn.png,vietnam,0.250390625
265,1721402.510700005,1099.2877999963239,True,20,bi.png,burundi,0.2871093750000001
266,1725689.7308000042,2390.4427999951877,True,142,na.png,namibia,0.35859375000000004
267,1731120.5685000024,3017.3566000009887,True,124,mc.png,monaco,0.349609375
268,1737192.5897000036,999.9268999965861,True,163,ro.png,romania,0.3
269,1741223.2557000099,1288.701199999079,True,202,uz.png,uzbekistan,0.3
270,1747076.8524000014,962.2062999987975,True,163,ro.png,romania,0.3
271,1751177.1097000018,1285.0730000063777,True,202,uz.png,uzbekistan,0.3
272,1756080.580000009,950.8498999930453,True,1,ae.png,united arab emirates,0.250390625
273,1761696.8682000006,inf,True,208,xk.png,kosovo,0.349609375
274,1767706.8285999994,2508.624200010672,True,11,aw.png,aruba,0.361328125
275,1773081.1057999963,4448.0532000015955,True,124,mc.png,monaco,0.39921874999999996
276,1780521.275799998,inf,True,29,bz.png,belize,0.25078124999999996
277,1791567.975900005,1202.3595999926329,False,73,gg.png,guernsey,0.3109375
278,1798039.2836999963,1406.2388000020292,True,163,ro.png,romania,0.250390625
279,1802488.3310000005,1184.0443999972194,True,202,uz.png,uzbekistan,0.250390625
280,1808199.442600002,1051.227999996394,True,124,mc.png,monaco,0.3746093749999999
281,1812153.6928999994,1738.6544000038411,True,208,xk.png,kosovo,0.30000000000000004
282,1816697.9520000024,1033.6064000001643,True,86,hr.png,croatia,0.2125
283,1821042.587899996,inf,True,152,pa.png,panama,0.33085937500000007
284,1828958.3073999966,192408.34010000993,True,6,ao.png,angola,0.25078124999999996
285,2024188.882900009,3419.9806999969296,True,124,mc.png,monaco,0.39296875
286,2030671.0654000053,inf,True,130,mm.png,myanmar,0.36796874999999996
287,2037335.7629000093,1217.1392999880482,True,39,cn.png,china,0.20078125
288,2041384.2618000053,1659.3286999997217,True,11,aw.png,aruba,0.3609375
289,2045926.3075000052,971.3427999960259,True,178,so.png,somalia,0.20078125
290,2050004.9196000036,835.6930000009015,True,53,ee.png,estonia,0.20078125
291,2053945.330200004,3703.2910999986343,True,50,do.png,dominican republic,0.29999999999999993
292,2061920.0859999983,1142.5614000037313,True,22,bn.png,brunei,0.2503906250000002
293,2066060.112200008,843.6841999937315,True,69,gb-wls.png,wales,0.20078125
294,2069773.587600008,1740.7365999969188,True,58,et.png,ethiopia,0.2007812500000001
295,2074820.5899000023,1648.635300007183,True,124,mc.png,monaco,0.36835937499999993
296,2079981.6521000029,1151.6108999932185,True,208,xk.png,kosovo,0.2503906250000001
297,2084074.8519000043,3723.3746999991126,False,38,cm.png,cameroon,0.29999999999999993
298,2091316.4824999985,1317.8038000040688,True,205,vn.png,vietnam,0.20078125
299,2096148.4601999982,1132.6126000056975,True,1,ae.png,united arab emirates,0.20078125
300,2101704.7858000007,1583.8295999998227,True,107,kn.png,saint kitts and nevis,0.3167968750000002
301,2109971.3727000053,10612.02359999856,True,142,na.png,namibia,0.3597656250000001
302,2123851.2513000024,1262.14049999509,True,73,gg.png,guernsey,0.310546875
303,2128666.513899996,4186.390500006266,False,163,ro.png,romania,0.29999999999999993
304,2135874.486700006,2260.855799992103,True,202,uz.png,uzbekistan,0.22499999999999998
305,2142670.378499999,7095.940800005104,True,50,do.png,dominican republic,0.3003906249999999
306,2154454.5137999956,1222.4286000127904,True,152,pa.png,panama,0.2812500000000001
307,2158639.3039999967,1230.200300007593,True,70,gd.png,grenada,0.3
308,2163160.075000007,871.9490999937989,True,177,sn.png,senegal,0.3
309,2167073.684700008,1126.6162999966182,False,70,gd.png,grenada,0.3
310,2170494.0724000046,985.3703999975696,True,177,sn.png,senegal,0.3
311,2174800.511699999,4315.964900000952,False,38,cm.png,cameroon,0.319921875
312,2182230.452600008,1479.2254999922588,True,57,es.png,spain,0.3
313,2186771.436199997,2547.764300005045,True,134,mr.png,mauritania,0.376953125
314,2194959.7959000096,749.5618999963626,True,57,es.png,spain,0.3
315,2198599.382500004,788.0327000021935,True,157,pl.png,poland,0.3
316,2202311.035799998,1337.3291000025347,True,43,cv.png,cabo verde,0.3
317,2210099.7130000032,995.0554999960586,True,157,pl.png,poland,0.3
318,2214052.9671999975,3519.7485000099987,False,43,cv.png,cabo verde,0.3
319,2221447.2559999996,1392.646200009156,False,70,gd.png,grenada,0.349609375
320,2225134.3996000066,1270.6821000031196,True,177,sn.png,senegal,0.250390625
321,2229585.531799996,inf,False,163,ro.png,romania,0.324609375
322,2239810.697599998,3663.688500004355,True,124,mc.png,monaco,0.39453125
323,2246550.48630001,697.5633999970742,True,57,es.png,spain,0.250390625
324,2250147.6000999976,962.5846000122838,True,48,dk.png,denmark,0.3
325,2254468.8399000005,1060.573700000532,True,155,ph.png,philippines,0.3
326,2260955.3827000055,1124.2561999969184,True,48,dk.png,denmark,0.3
327,2265802.2098000073,1119.6422999929637,False,155,ph.png,philippines,0.3
328,2269217.5441,inf,True,157,pl.png,poland,0.349609375
329,2275336.056800006,3997.358599998057,False,70,gd.png,grenada,0.39921874999999996
330,2281624.368100005,2117.920499993488,False,43,cv.png,cabo verde,0.349609375
331,2287162.111800004,1031.511499997694,True,11,aw.png,aruba,0.31132812500000007
332,2291008.2005000003,1580.6090999976732,True,130,mm.png,myanmar,0.3667968749999999
333,2295873.9810999976,1642.4810000024736,False,15,bd.png,bangladesh,0.3
334,2301482.5906000044,4256.612199998461,False,70,gd.png,grenada,0.4488281249999999
335,2308033.803099999,4173.53280000668,False,15,bd.png,bangladesh,0.3
336,2314498.683700003,1013.7442999985069,True,157,pl.png,poland,0.30000000000000004
337,2318400.4161000047,814.0714000039734,True,48,dk.png,denmark,0.250390625
338,2322260.128000009,5097.897399988025,False,155,ph.png,philippines,0.349609375
339,2329651.828300004,inf,True,70,gd.png,grenada,0.45234374999999993
340,2335104.42280001,1472.6693999981508,True,43,cv.png,cabo verde,0.34921875
341,2340458.928799999,1843.6158000109717,True,124,mc.png,monaco,0.34492187500000004
342,2345222.4438999984,1248.3822000063956,True,38,cm.png,cameroon,0.31953125000000004
343,2349662.791399998,inf,True,163,ro.png,romania,0.328125
344,2356924.1245000013,inf,True,133,mq.png,martinique,0.39492187499999987
345,2369731.59760001,6310.62949998863,True,15,bd.png,bangladesh,0.349609375
346,2379579.144400006,1454.4927999959327,True,70,gd.png,grenada,0.4488281249999999
347,2384147.7793000084,965.665999989491,True,155,ph.png,philippines,0.34921875
348,2388841.5999999996,1216.4080000077374,True,29,bz.png,belize,0.20117187499999997
349,2393128.1763000004,1430.8512999997474,True,133,mq.png,martinique,0.3945312499999999
350,2398835.068100001,1045.6101000015624,True,97,it.png,italy,0.15117187499999998
351,2402626.0456000017,942.6979999989271,True,146,nl.png,netherlands,0.15117187499999998
352,2407096.5502000037,1838.0027999957092,True,9,at.png,austria,0.158203125
353,2412519.467300008,1296.5076999971643,True,15,bd.png,bangladesh,0.34921875
354,2418051.571300006,inf,True,142,na.png,namibia,0.40937500000000004
355,2429665.7245999957,1824.8397000133991,True,43,cv.png,cabo verde,0.29960937500000007
356,2436136.962500008,7771.1095999986865,False,70,gd.png,grenada,0.49843749999999987
357,2446202.5342999985,1039.9124000105076,True,6,ao.png,angola,0.20117187499999997
358,2450190.7578999964,1462.0286000133492,True,70,gd.png,grenada,0.4980468749999999
359,2454737.951999996,3113.6942000011913,True,142,na.png,namibia,0.421484375
360,2460880.4784000097,2909.90429998748,True,50,do.png,dominican republic,0.3218749999999999
361,2468111.512400006,1245.1756999948993,True,155,ph.png,philippines,0.29960937500000007
362,2473626.6500000055,1530.9030999927782,True,0,ad.png,andorra,0.3
363,2478500.2016000072,1217.6233999924734,True,83,gy.png,guyana,0.3
364,2482669.0799000063,3582.715399999637,False,0,ad.png,andorra,0.3
365,2488544.928999996,848.0537000144832,True,83,gy.png,guyana,0.3
366,2492338.7484999984,1379.7982000107877,True,70,gd.png,grenada,0.44843749999999993
367,2496968.419500001,1555.9559999965131,True,5,am.png,armenia,0.25117187500000004
368,2501467.7868,1595.5861999974586,True,15,bd.png,bangladesh,0.29960937500000007
369,2506694.8042,inf,False,73,gg.png,guernsey,0.36015624999999996
370,2514878.0197000015,1089.3288000081666,True,174,sk.png,slovakia,0.3
371,2519308.0789000085,1038.1940999943763,True,133,mq.png,martinique,0.3941406249999999
372,2524470.6181000075,792.3246999997646,False,174,sk.png,slovakia,0.3
373,2528955.355500002,1940.3223999980837,True,142,na.png,namibia,0.42109375000000004
374,2533893.2373999995,1557.6654000035487,True,0,ad.png,andorra,0.250390625
375,2539732.768700007,1562.3231999925338,True,83,gy.png,guyana,0.250390625
376,2544169.77220001,1953.2535999896936,True,177,sn.png,senegal,0.20078125
377,2549179.4601000003,1663.097800002899,True,163,ro.png,romania,0.326171875
378,2553797.7217000006,inf,True,157,pl.png,poland,0.349609375
379,2562218.0467,1109.4616000046954,True,73,gg.png,guernsey,0.359765625
380,2566502.416400006,2163.891299991403,True,134,mr.png,mauritania,0.32734375000000004
381,2575130.7308999966,inf,True,174,sk.png,slovakia,0.349609375
382,2581959.6047000084,701.2912999927066,True,57,es.png,spain,0.20078125
383,2585507.5593000073,2064.9684999953024,False,38,cm.png,cameroon,0.319921875
384,2590658.3882999984,1155.9502000021748,True,25,bs.png,bahamas,0.2007812500000001
385,2594882.135499996,1111.7403000099584,True,182,sv.png,el salvador,0.3
386,2599503.078900001,1039.9751000078395,True,189,tl.png,timor leste,0.3
387,2604792.578200009,1695.4748999997973,False,182,sv.png,el salvador,0.3
388,2608781.22650001,1390.6728999866173,True,189,tl.png,timor leste,0.3
389,2614243.4895000043,1341.719399991911,True,70,gd.png,grenada,0.398828125
390,2621342.442399997,937.901700002607,True,174,sk.png,slovakia,0.34921875
391,2625914.474600009,1050.9122999939136,True,157,pl.png,poland,0.34921875
392,2629843.458700008,inf,True,130,mm.png,myanmar,0.3671874999999999
393,2637282.247800002,803.5233999979682,True,68,gb-sct.png,scotland,0.3
394,2641274.8680000077,1338.824699996505,True,142,na.png,namibia,0.42070312500000007
395,2646161.130000008,667.2880999976769,True,68,gb-sct.png,scotland,0.3
396,2650035.908999998,1011.1767000053078,True,48,dk.png,denmark,0.20078125
397,2654118.3685,1427.5286000045016,True,182,sv.png,el salvador,0.250390625
398,2659479.0971000036,inf,False,189,tl.png,timor leste,0.349609375
399,2880498.230199999,820.672300003469,True,68,gb-sct.png,scotland,0.250390625
400,2884470.3475999995,3855.8882000069134,False,189,tl.png,timor leste,0.34921875
401,2893551.9369999967,1283.193300012499,True,174,sk.png,slovakia,0.29960937500000007
402,2898006.235499997,1596.7363000093028,True,157,pl.png,poland,0.29960937500000007
403,2902787.5717999996,1141.700200008694,True,73,gg.png,guernsey,0.31015625
404,2906987.6347999964,1796.8604000052437,True,50,do.png,dominican republic,0.3003906249999999
405,2913545.253899996,1067.359000007622,True,133,mq.png,martinique,0.34453124999999996
406,2918463.0494000013,7200.556800002232,True,142,na.png,namibia,0.42578125
407,2928697.610100004,5980.630299992859,False,43,cv.png,cabo verde,0.34921875
408,2938541.8971000034,8330.339599997737,False,0,ad.png,andorra,0.29999999999999993
409,2949168.9608000014,2458.802399996668,False,189,tl.png,timor leste,0.349609375
410,2955306.2930000015,1243.2640000041574,True,83,gy.png,guyana,0.20078125
411,2959495.079600005,1071.8006999958307,True,163,ro.png,romania,0.32578125
412,2963866.6393000023,6775.330699994694,True,155,ph.png,philippines,0.34921875
413,2974501.763699998,4769.099099998362,False,124,mc.png,monaco,0.39453125
414,2982220.869099998,inf,True,15,bd.png,bangladesh,0.34921875
415,2988116.0997999976,2997.260100004729,True,20,bi.png,burundi,0.2992187500000001
416,2995188.041500005,1346.6072000013664,True,70,gd.png,grenada,0.34921875
417,2999584.9762,2071.707399998326,True,43,cv.png,cabo verde,0.324609375
418,3005179.06010001,1986.7017999934033,True,38,cm.png,cameroon,0.31953125000000004
419,3010580.9745000005,1264.5675000096671,True,182,sv.png,el salvador,0.20078125
420,3015385.638000007,1116.98669999931,False,124,mc.png,monaco,0.401953125
421,3019423.561200005,942.1142999925651,True,155,ph.png,philippines,0.29960937500000007
422,3024110.76570001,12350.526399997994,True,142,na.png,namibia,0.457421875
423,3039380.634800007,1130.16319999611,True,0,ad.png,andorra,0.29960937499999996
424,3043803.428600004,1231.25810000021,True,15,bd.png,bangladesh,0.29960937500000007
425,3048702.7059999965,1417.97580000991,True,156,pk.png,pakistan,0.15117187499999998
426,3053233.53920001,1426.076299990993,True,81,gt.png,guatemala,0.15117187499999998
427,3058030.9391000047,1040.8937000026926,True,192,to.png,tonga,0.15117187499999998
428,3061779.9224000047,984.8646000027657,False,130,mm.png,myanmar,0.41679687499999984
429,3065938.3995000096,1842.898399991449,True,142,na.png,namibia,0.4078125
430,3070689.033700008,3114.5620999885723,False,189,tl.png,timor leste,0.39921874999999996
431,3080941.221000001,2718.0334000005387,True,122,ly.png,libya,0.201171875
432,3086497.233700007,1521.905299989041,True,161,py.png,paraguay,0.15117187499999998
433,3091206.6979000084,1450.9311000001617,True,130,mm.png,myanmar,0.41640624999999987
434,3095678.9014000096,2502.6240999870934,True,62,fo.png,faroe islands,0.19414062499999998
435,3101905.794999999,8489.876300008968,False,124,mc.png,monaco,0.42656250000000007
436,3113358.007700008,2426.7000999972224,True,189,tl.png,timor leste,0.398828125
437,3119273.660799998,inf,True,119,lt.png,lithuania,0.250390625
438,3129187.1863999986,1831.2541000051424,True,153,pe.png,peru,0.15117187499999998
439,3133986.254400006,1547.7336999904364,True,92,im.png,isle of man,0.15117187499999998
440,3140073.739200001,1651.1118000051938,True,208,xk.png,kosovo,0.2007812500000001
441,3144945.844600006,5922.479200002737,True,32,cf.png,central african republic,0.3
442,3156445.8639000077,5091.517099994235,True,124,mc.png,monaco,0.42695312500000004
443,3165966.837700005,1289.0232999925502,True,32,cf.png,central african republic,0.3
444,3173517.594100005,1687.4398999935947,True,144,ng.png,nigeria,0.3
445,3180388.9486999977,2884.9421000052243,True,12,az.png,azerbaijan,0.3
446,3187976.4024000033,1143.6383999972604,True,144,ng.png,nigeria,0.3
447,3192030.559400009,1598.3512999955565,False,12,az.png,azerbaijan,0.3
448,3195918.695900007,1962.174100000877,True,130,mm.png,myanmar,0.37929687499999987
449,3201403.3751000096,4106.3894999972545,True,189,tl.png,timor leste,0.4234375
450,3209073.193899996,912.153200013563,True,68,gb-sct.png,scotland,0.20078125
451,3213177.0280000055,inf,True,174,sk.png,slovakia,0.34921875
452,3224642.471900006,1382.9828000017442,True,32,cf.png,central african republic,0.250390625
453,3232130.652599997,7316.409600011073,False,202,uz.png,uzbekistan,0.231640625
454,3243443.1709000054,1084.6434999988414,True,144,ng.png,nigeria,0.250390625
455,3247406.7049000002,inf,True,12,az.png,azerbaijan,0.349609375
456,3254038.1997000077,1303.986200000625,True,169,sc.png,seychelles,0.15117187499999998
457,3258738.9733000016,1902.894200000912,True,189,tl.png,timor leste,0.42304687500000004
458,3264169.3244000054,1226.8748999922536,False,124,mc.png,monaco,0.47421875
459,3268258.215000009,2308.4373999880627,True,163,ro.png,romania,0.310546875
460,3274133.9567999966,1158.3368999999948,True,174,sk.png,slovakia,0.29960937500000007
461,3278394.513000007,1185.807399990037,True,160,pw.png,palau,0.15117187499999998
462,3282356.6466000048,4709.38960000081,True,124,mc.png,monaco,0.49882812500000007
463,3290102.957800002,948.2247999981046,True,119,lt.png,lithuania,0.20078125
464,3294289.7968000034,2528.0691999942064,True,12,az.png,azerbaijan,0.39921874999999996
465,3301478.5630999976,1225.81910000043,True,0,ad.png,andorra,0.24999999999999997
466,3305819.807000007,1930.2402000031434,True,124,mc.png,monaco,0.4984375000000001
467,3310814.222900008,1525.076399993617,True,203,vc.png,saint vincent and the grenadines,0.15117187499999998
468,3318282.344799998,1187.0977000072598,True,172,sg.png,singapore,0.3
469,3322520.5429000054,1353.107100003399,True,12,az.png,azerbaijan,0.3824218749999999
470,3327848.664200006,2889.5213999934494,False,172,sg.png,singapore,0.3
471,3333032.154300003,2044.367800001055,True,43,cv.png,cabo verde,0.290625
472,3339349.262600008,1308.8210999993607,True,211,zm.png,zambia,0.3
473,3343608.185999998,1422.952500011772,True,100,jo.png,jordan,0.15117187499999998
474,3347903.113799999,1733.3994000074454,True,211,zm.png,zambia,0.3
475,3352501.07530001,1720.5313999871723,True,124,mc.png,monaco,0.4980468750000001
476,3357146.4339000084,1958.6086999918334,True,189,tl.png,timor leste,0.3984375
477,3362528.7612999966,1820.2557000038214,True,20,bi.png,burundi,0.2496093750000001
478,3368108.5328000044,1112.070799994748,True,38,cm.png,cameroon,0.271484375
479,3373371.5399000067,2276.480699990876,True,158,ps.png,palestine,0.169921875
480,3378913.5689999964,2237.2644999995828,False,172,sg.png,singapore,0.349609375
481,3383443.8849,887.1147000025958,False,170,sd.png,sudan,0.3
482,3387937.6988000004,1184.2494000010192,True,27,bw.png,botswana,0.3
483,3392963.616699999,1018.7412000084296,True,170,sd.png,sudan,0.3
484,3398628.7381,1221.9636000082828,True,27,bw.png,botswana,0.3
485,3403057.9465000047,1129.2347999988124,True,211,zm.png,zambia,0.250390625
486,3407205.220100004,1638.6122999973595,True,124,mc.png,monaco,0.47343750000000007
487,3411725.2828000057,1367.8038999931887,True,12,az.png,azerbaijan,0.3609374999999999
488,3416642.376899996,3699.7706000111066,True,197,tz.png,tanzania,0.250390625
489,3423671.3611000013,1599.4828999973834,False,172,sg.png,singapore,0.39921874999999996
490,3428367.609599998,1117.9995999988168,False,120,lu.png,luxembourg,0.3
491,3433245.293100001,1185.3004000005312,True,91,il.png,israel,0.15117187499999998
492,3437515.621099999,inf,False,120,lu.png,luxembourg,0.3
493,3442794.166499996,1154.4889000072144,True,170,sd.png,sudan,0.250390625
494,3446629.3573000003,1371.9912000088952,True,27,bw.png,botswana,0.250390625
495,3452040.7730000005,1899.234500000719,False,72,gf.png,french guiana,0.3
496,3458652.7853000006,1182.926499998197,True,172,sg.png,singapore,0.398828125
497,3464355.4051000103,1676.9954999908805,True,72,gf.png,french guiana,0.3
498,3469932.115000003,1144.825399999041,True,151,om.png,oman,0.3
499,3473868.91830001,935.4685999858193,True,24,br.png,brazil,0.3
500,3477912.250299996,940.6339000123553,True,151,om.png,oman,0.3
501,3481587.340400001,973.9241000064649,True,24,br.png,brazil,0.3
502,3485495.194800009,1407.555499987211,True,120,lu.png,luxembourg,0.250390625
503,3490747.365400006,1111.2828000038862,True,115,li.png,liechtenstein,0.3
504,3495871.100000004,1242.6732000024058,True,194,tt.png,trinidad and tobago,0.3
505,3503761.303799998,1173.5147000001743,True,115,li.png,liechtenstein,0.3
506,3508516.6322000003,553.3738000085577,True,194,tt.png,trinidad and tobago,0.3
507,3514706.43820001,3972.3352999864146,False,72,gf.png,french guiana,0.349609375
508,3520976.5657999963,1214.1259000049904,True,172,sg.png,singapore,0.3984375
509,3525762.26280001,890.8652999959886,True,151,om.png,oman,0.250390625
510,3529390.119100004,1596.497899998445,True,142,na.png,namibia,0.400390625
511,3533997.126100003,812.554000003729,True,24,br.png,brazil,0.250390625
512,3537877.7736000046,1534.583699991461,True,124,mc.png,monaco,0.42460937500000007
513,3543209.228100008,907.1385999997146,False,193,tr.png,turkey,0.3
514,3547021.3468000004,871.2571000065655,True,140,my.png,malaysia,0.3
515,3551017.564900001,887.5913999946788,True,193,tr.png,turkey,0.3
516,3554784.305100009,931.9279999909922,True,140,my.png,malaysia,0.3
517,3558729.616700002,1099.6022000038065,True,115,li.png,liechtenstein,0.250390625
518,3567024.474000005,4881.810499995947,True,72,gf.png,french guiana,0.39921874999999996
519,3576163.3127999958,1228.8013000069186,True,194,tt.png,trinidad and tobago,0.250390625
520,3582293.3894000016,2665.974799994845,True,189,tl.png,timor leste,0.398828125
521,3589109.2558000092,1453.715199997183,True,12,az.png,azerbaijan,0.31132812499999996
522,3594576.6892999965,1430.6790000116453,True,144,ng.png,nigeria,0.20078125
523,3599170.4901000047,1494.7964000022039,True,72,gf.png,french guiana,0.398828125
524,3604456.2799999984,845.489900006447,True,193,tr.png,turkey,0.250390625
525,3608205.6317000096,1113.6542999884114,True,140,my.png,malaysia,0.250390625
526,3612392.080799997,3507.6338000069372,True,172,sg.png,singapore,0.42695312500000004
527,3619121.654500006,2333.256999990903,False,32,cf.png,central african republic,0.29999999999999993
528,3623751.062299998,1501.4985000016168,True,197,tz.png,tanzania,0.20078125
529,3628528.550200004,1570.3778000026941,True,157,pl.png,poland,0.2500000000000001
530,3632949.720999997,1094.882300007157,True,113,lb.png,lebanon,0.15117187499999998
531,3637144.4257999975,863.2330000107177,True,164,rs.png,serbia,0.15117187499999998
532,3641099.3430000087,1132.144699994009,True,149,nr.png,nauru,0.3
533,3645865.7515000086,831.2269999878481,True,121,lv.png,latvia,0.3
534,3649618.8064000015,1699.7892000074498,True,149,nr.png,nauru,0.3
535,3654065.633799997,1243.0297000100836,True,121,lv.png,latvia,0.3
536,3658933.453100006,1756.128699998837,True,172,sg.png,singapore,0.3773437500000001
537,3663730.634499996,1698.3827000078745,True,72,gf.png,french guiana,0.34921875
538,3669866.908399999,4166.795099998359,True,50,do.png,dominican republic,0.3218749999999999
539,3679193.7871999983,1161.4658000031486,True,150,nz.png,new zealand,0.3
540,3684512.3189000003,951.9673000033945,True,179,sr.png,suriname,0.3
541,3689237.1677000048,537.662899994757,True,150,nz.png,new zealand,0.3
542,3694270.2860999997,523.8814000040293,True,179,sr.png,suriname,0.3
543,3697911.6280000014,1306.579900003504,True,149,nr.png,nauru,0.250390625
544,3701928.886199996,1111.453700010199,True,121,lv.png,latvia,0.250390625
545,3705987.320100001,1356.4081000075676,True,155,ph.png,philippines,0.2500000000000001
546,3711089.347500005,2062.2730000033043,True,211,zm.png,zambia,0.2109375
547,3716098.909200009,1423.6042999983765,True,32,cf.png,central african republic,0.250390625
548,3723972.653600009,2766.7948999875225,True,15,bd.png,bangladesh,0.31171875000000004
549,3730261.8395000026,977.3638000041246,True,87,ht.png,haiti,0.3
550,3733936.3234000048,1098.5121999983676,True,85,hn.png,honduras,0.3
551,3738929.4329999974,1034.3256000052206,True,87,ht.png,haiti,0.3
552,3742710.7875000075,1154.5666000018828,True,85,hn.png,honduras,0.3
553,3747056.6095999964,1061.8558000135235,True,150,nz.png,new zealand,0.250390625
554,3751750.176900008,1117.664099990856,True,179,sr.png,suriname,0.250390625
555,3756035.382800008,1454.3848999887705,True,170,sd.png,sudan,0.20078125
556,3760196.1527000093,1733.5388999930583,True,189,tl.png,timor leste,0.37421874999999993
557,3765411.1910000066,4574.343400002923,False,27,bw.png,botswana,0.29999999999999993
558,3772279.7905000043,1082.5462999925949,True,184,sz.png,eswatini,0.3
559,3776894.95490001,1093.2044999934733,True,14,bb.png,barbados,0.3
560,3781092.8368000025,1019.2666000071913,True,184,sz.png,eswatini,0.3
561,3786012.5552999964,1294.1558000016958,True,14,bb.png,barbados,0.3
562,3791020.564400009,1020.4441999960691,True,87,ht.png,haiti,0.250390625
563,3794775.2641999978,4022.3110000076704,True,85,hn.png,honduras,0.349609375
564,3801935.12580001,1396.6183999869972,True,120,lu.png,luxembourg,0.20078125
565,3808189.890399997,3151.5215000109747,True,130,mm.png,myanmar,0.4171874999999998
566,3815097.9720000033,4180.237299995497,True,183,sy.png,syria,0.201171875
567,3822024.4524000008,899.3593000052497,True,37,cl.png,chile,0.3
568,3825686.289899997,13024.944000004325,True,70,gd.png,grenada,0.36210937500000007
569,3841751.8216000027,834.7395000015385,True,37,cl.png,chile,0.3
570,3845343.157299998,1038.2501999991946,True,184,sz.png,eswatini,0.250390625
571,3850136.903400009,1075.6506999894045,True,14,bb.png,barbados,0.250390625
572,3854650.6423999965,2578.228500002064,True,85,hn.png,honduras,0.34921875
573,3860380.0520000076,1214.746699988842,True,151,om.png,oman,0.20078125
574,3864325.6147000063,1024.5783999999985,True,130,mm.png,myanmar,0.4042968749999998
575,3869053.830100005,860.6036999993958,True,24,br.png,brazil,0.20078125
576,3872892.8560000057,1373.2443999908864,True,27,bw.png,botswana,0.250390625
577,3877793.5493999976,2517.1364999986254,True,11,aw.png,aruba,0.28671875
578,3883077.1752,2164.33359999815,False,10,au.png,australia,0.201171875
579,3889085.252600009,2302.631699989084,True,115,li.png,liechtenstein,0.20078125
580,3895956.262599997,846.9547999990173,True,37,cl.png,chile,0.250390625
581,3899620.124699999,5595.42759999726,False,72,gf.png,french guiana,0.398828125
582,3910246.953900001,1159.3073999974877,True,172,sg.png,singapore,0.32773437500000013
583,3914904.1854000096,828.3341999924742,True,193,tr.png,turkey,0.20078125
584,3918590.2642,inf,True,140,my.png,malaysia,0.29999999999999993
585,3924075.292399997,5719.486700007226,False,194,tt.png,trinidad and tobago,0.29999999999999993
586,3935992.885700005,1618.98849999113,True,50,do.png,dominican republic,0.32148437499999993
587,3941876.8482000013,6487.0624000034295,False,72,gf.png,french guiana,0.42734375
588,3950659.6288,1405.1786000053398,True,85,hn.png,honduras,0.34882812500000004
589,3956216.92620001,inf,True,142,na.png,namibia,0.44999999999999996
590,3965386.035800009,1092.6631999900565,True,165,ru.png,russia,0.15117187499999998
591,3969391.004200006,1381.9115999941714,True,86,hr.png,croatia,0.16289062499999998
592,3973980.1507000085,inf,True,142,na.png,namibia,0.45976562499999996
593,3981182.57260001,3852.263399996329,True,187,th.png,thailand,0.250390625
594,3988220.790799998,1364.1416000030003,True,72,gf.png,french guiana,0.37773437500000007
595,3993678.409900007,6487.77999999607,True,124,mc.png,monaco,0.42656250000000007
596,4003101.5943000093,inf,True,174,sk.png,slovakia,0.34921875
597,4008473.0882,1259.319300007075,True,149,nr.png,nauru,0.20078125
598,4012542.556500004,2260.824400000274,True,121,lv.png,latvia,0.22499999999999998
599,4018231.895000004,1066.2524999938905,True,140,my.png,malaysia,0.250390625
600,4022479.328100002,1227.0824000006542,True,163,ro.png,romania,0.26093750000000004
601,4026747.086300005,8967.983900002204,True,142,na.png,namibia,0.46015624999999993
602,4038660.8934999965,2981.7475000019185,True,194,tt.png,trinidad and tobago,0.324609375
603,4047086.754899996,1630.9502000077628,True,60,fj.png,fiji,0.15117187499999998
604,4052888.7810000014,877.4067000048235,True,54,eg.png,egypt,0.3
605,4056720.5369,911.9999999967404,True,21,bj.png,benin,0.3
606,4060414.649600003,983.4337999927811,True,54,eg.png,egypt,0.3
607,4064380.2670000005,555.7891000062227,True,21,bj.png,benin,0.3
608,4067811.407900008,1372.7809999980964,True,174,sk.png,slovakia,0.29960937500000007
609,4072559.9298000014,1160.9947999971919,True,85,hn.png,honduras,0.2992187500000001
610,4359359.828700006,1327.8125999933109,True,54,eg.png,egypt,0.250390625
611,4364124.987900009,inf,False,21,bj.png,benin,0.28398437499999996
612,4373314.655599999,1491.6457000067458,True,142,na.png,namibia,0.45976562499999996
613,4377750.325200003,2543.6222999989986,True,194,tt.png,trinidad and tobago,0.32421875
614,4385167.526100006,1312.0314999977127,True,150,nz.png,new zealand,0.20078125
615,4390201.42930001,3143.5682999873534,True,179,sr.png,suriname,0.25625
616,4396568.072900001,1161.8203999977559,True,87,ht.png,haiti,0.20078125
617,4400460.244900009,1515.911199996248,True,184,sz.png,eswatini,0.20078125
618,4406260.407900001,1546.8273000009358,True,14,bb.png,barbados,0.20078125
619,4411123.166899997,2019.4940000073984,True,130,mm.png,myanmar,0.3546874999999998
620,4416590.913000007,2353.6851999964565,True,72,gf.png,french guiana,0.353125
621,4423551.826199997,1566.2163000088185,True,70,gd.png,grenada,0.3148437500000001
622,4428311.563099996,5432.446300008334,True,187,th.png,thailand,0.25625
623,4436881.490600005,1119.577999997884,True,15,bd.png,bangladesh,0.2621093750000001
624,4441969.778700004,1147.4156000036746,True,37,cl.png,chile,0.20078125
625,4445880.95050001,1558.6740000005811,True,124,mc.png,monaco,0.413671875
626,4450437.2324,1668.4464999996126,True,12,az.png,azerbaijan,0.26171875
627,4456302.586600009,2362.324499990791,False,189,tl.png,timor leste,0.3746093749999999
628,4462717.315700007,1350.6316999997944,True,142,na.png,namibia,0.459375
629,4467028.633299997,inf,False,73,gg.png,guernsey,0.310546875
630,4475818.3555,3002.6282000038773,False,133,mq.png,martinique,0.3941406249999999
631,4482384.311400005,1210.538800005801,True,71,ge.png,georgia,0.15117187499999998
632,4486730.845099999,4610.552500002086,True,21,bj.png,benin,0.28515625
633,4494109.010500004,1484.2608000040054,True,202,uz.png,uzbekistan,0.20625
634,4499938.561500006,875.6321999970824,True,53,ee.png,estonia,0.15117187499999998
635,4503928.02610001,1797.7677999874577,True,39,cn.png,china,0.15117187499999998
636,4508462.046,5308.520300008357,True,133,mq.png,martinique,0.3945312499999999
637,4517123.830900004,914.873100001365,True,178,so.png,somalia,0.15117187499999998
638,4520958.846000008,1467.8181999921799,True,50,do.png,dominican republic,0.271875
639,4527031.453200005,966.6041000019759,True,69,gb-wls.png,wales,0.15117187499999998
640,4530875.611199997,2114.5127000054345,True,1,ae.png,united arab emirates,0.15117187499999998
641,4537913.2637,2567.652099998668,True,194,tt.png,trinidad and tobago,0.32539062500000004
642,4545820.983900005,2433.8615000015125,False,43,cv.png,cabo verde,0.340234375
643,4550974.255799999,1185.022500009276,True,142,na.png,namibia,0.409765625
644,4555118.66980001,5857.905899989419,False,64,ga.png,gabon,0.26249999999999996
645,4563271.268299999,1378.1913999998942,True,205,vn.png,vietnam,0.15117187499999998
646,4567871.3039,868.9318999964744,True,42,cu.png,cuba,0.3
647,4571495.585900004,948.7880999948829,True,40,co.png,colombia,0.3
648,4576603.203799997,1084.6479000030085,False,42,cu.png,cuba,0.3
649,4580475.411799998,2123.524900002405,True,40,co.png,colombia,0.3
650,4586098.0786,1065.0571000007913,True,35,ci.png,ivory coast,0.3
651,4591429.741600005,972.3596999971196,True,16,be.png,belgium,0.3
652,4595502.818100009,796.7869999986142,True,35,ci.png,ivory coast,0.3
653,4600847.693300006,1073.6766999904066,True,16,be.png,belgium,0.3
654,4605016.740899999,1550.301900002174,True,43,cv.png,cabo verde,0.33984375
655,4610731.9383,1018.7686999998987,True,200,us.png,united states of america,0.3
656,4617488.52530001,1638.0396999884397,True,133,mq.png,martinique,0.34492187499999993
657,4622569.594700006,821.1228000000119,True,200,us.png,united states of america,0.3
658,4628146.88510001,2244.0427999971434,True,42,cu.png,cuba,0.281640625
659,4633035.499000005,8797.291399997659,False,40,co.png,colombia,0.349609375
660,4644131.086499997,993.9832000089809,True,35,ci.png,ivory coast,0.250390625
661,4648917.792000008,1162.1677999934182,True,85,hn.png,honduras,0.2496093750000001
662,4653191.044200008,1026.0309000005946,True,16,be.png,belgium,0.250390625
663,4657262.718800005,2961.926899995655,True,172,sg.png,singapore,0.3523437500000002
664,4664206.123399999,1086.1806000033394,True,54,eg.png,egypt,0.20078125
665,4668170.517999999,3854.3644000012428,True,152,pa.png,panama,0.2816406250000001

