trial,start_time,rt,correct,fact_id,question,answer,alpha
1,42984.765875007724,1574.5334999955958,True,54,eg.png,egypt,0.3
2,47878.249125002185,854.8159579950152,True,54,eg.png,egypt,0.3
3,51652.95012500428,764.0105000027688,True,67,gb-nir.png,northern ireland,0.3
4,57253.245500003686,341.8391250015702,True,67,gb-nir.png,northern ireland,0.3
5,62365.588083004695,1665.0552920036716,True,3,ag.png,antigua and barbuda,0.3
6,69666.47970800113,950.3867089952109,True,211,zm.png,zambia,0.3
7,74274.32620800391,845.2771250013029,True,3,ag.png,antigua and barbuda,0.3
8,79851.22604201024,521.6442909877514,True,211,zm.png,zambia,0.3
9,83479.21158300596,932.4694590031868,True,139,mx.png,mexico,0.3
10,89617.9245000094,837.4727919872385,True,96,is.png,iceland,0.3
11,93308.00208300934,1298.5196249937871,True,139,mx.png,mexico,0.3
12,98019.32358300837,583.017666998785,True,96,is.png,iceland,0.3
13,101649.27204200649,862.1487499913201,True,54,eg.png,egypt,0.250390625
14,105502.92037500185,1876.5522920002695,True,67,gb-nir.png,northern ireland,0.250390625
15,111279.9990830099,850.2997920004418,True,87,ht.png,haiti,0.3
16,115239.59595800261,680.9663339954568,True,149,nr.png,nauru,0.3
17,118893.95525000873,864.2745830002241,True,87,ht.png,haiti,0.3
18,122654.65587499784,357.5257920019794,True,149,nr.png,nauru,0.3
19,125847.23445800773,10060.776416998124,False,3,ag.png,antigua and barbuda,0.349609375
20,143710.58533299947,2480.6349590071477,True,211,zm.png,zambia,0.287109375
21,149255.16937499924,782.085291997646,True,139,mx.png,mexico,0.250390625
22,153114.5625000063,703.3173749950947,True,96,is.png,iceland,0.250390625
23,157101.43358299683,1110.5525000020862,True,189,tl.png,timor leste,0.3
24,161987.0887500001,753.812958006165,True,8,ar.png,argentina,0.3
25,166885.0766250107,inf,True,189,tl.png,timor leste,0.3
26,175844.210167008,1857.4252909893403,True,8,ar.png,argentina,0.3
27,182140.78691700706,10391.385750001064,False,87,ht.png,haiti,0.349609375
28,199145.52062501025,9323.059249989456,False,149,nr.png,nauru,0.349609375
29,211874.05616699834,1797.2588330012513,False,3,ag.png,antigua and barbuda,0.39921874999999996
30,222832.9890830064,1356.1795839923434,True,189,tl.png,timor leste,0.250390625
31,228374.55858300382,4848.301749996608,False,87,ht.png,haiti,0.39921874999999996
32,235935.30333299714,773.5793750034645,True,8,ar.png,argentina,0.250390625
33,240864.74525000085,3201.926417008508,True,3,ag.png,antigua and barbuda,0.418359375
34,248716.65137499804,943.8042500114534,True,149,nr.png,nauru,0.30000000000000004
35,253295.51220800204,2853.818625007989,True,14,bb.png,barbados,0.3
36,259962.50862500165,2333.5677919967566,True,87,ht.png,haiti,0.398828125
37,265132.21700000577,757.8948330046842,True,14,bb.png,barbados,0.3
38,269489.92133300635,3654.866291995859,True,25,bs.png,bahamas,0.3
39,276904.45345800254,1917.2973749955418,True,3,ag.png,antigua and barbuda,0.41718749999999993
40,284621.25675000425,inf,True,25,bs.png,bahamas,0.3
41,295180.27104200155,2410.6572909950046,False,211,zm.png,zambia,0.3125
42,300722.5858330057,3032.3420420027105,True,206,vu.png,vanuatu,0.3
43,307817.14695799747,820.8255839999765,True,118,ls.png,lesotho,0.3
44,312815.83458300156,inf,True,206,vu.png,vanuatu,0.3
45,319151.19270799914,1065.7568340102443,True,118,ls.png,lesotho,0.3
46,323628.58133300324,763.0302500037942,True,14,bb.png,barbados,0.250390625
47,327747.8922500013,1775.5192080076085,True,87,ht.png,haiti,0.3984375
48,332427.7582500072,6187.579124991316,True,202,uz.png,uzbekistan,0.3
49,344980.71641700517,inf,False,25,bs.png,bahamas,0.349609375
50,358168.4725829982,1381.1691670125583,True,202,uz.png,uzbekistan,0.3
51,365320.3002079972,1601.085875008721,False,3,ag.png,antigua and barbuda,0.426171875
52,373390.00516700617,inf,True,206,vu.png,vanuatu,0.349609375
53,404679.1628330102,825.0219589972403,True,118,ls.png,lesotho,0.250390625
54,408889.1907080106,1135.7248339918442,True,25,bs.png,bahamas,0.34921875
55,413099.1033330065,951.7202919960255,True,54,eg.png,egypt,0.20078125
56,417032.51504201035,inf,True,87,ht.png,haiti,0.40507812499999996
57,425091.6213330056,1586.3812919997144,True,202,uz.png,uzbekistan,0.250390625
58,430682.6939169987,1361.187291011447,True,206,vu.png,vanuatu,0.34921875
59,435666.1969580018,1687.7840000088327,True,3,ag.png,antigua and barbuda,0.41718749999999993
60,442834.7256670095,1188.3247079967987,True,67,gb-nir.png,northern ireland,0.20078125
61,448079.10950000223,1938.382249994902,True,211,zm.png,zambia,0.287109375
62,452982.5285830011,4215.0758750067325,True,203,vc.png,saint vincent and the grenadines,0.3
63,463710.0875830074,1549.3354999925941,True,96,is.png,iceland,0.20078125
64,468073.41670800815,1237.142166995909,True,203,vc.png,saint vincent and the grenadines,0.3
65,475890.73837500473,3177.3563750030007,True,139,mx.png,mexico,0.275
66,482227.24337500404,1574.7728749993257,True,149,nr.png,nauru,0.2503906250000001
67,486645.62341700366,1144.219833004172,True,82,gw.png,guinea bissau,0.3
68,491856.12712500733,1566.4476249949075,True,25,bs.png,bahamas,0.29960937500000007
69,496621.5257500007,3324.5429170056013,False,82,gw.png,guinea bissau,0.3
70,507988.22887500864,5898.293041987927,True,87,ht.png,haiti,0.4546874999999999
71,516716.4857500029,1740.7874579948839,True,206,vu.png,vanuatu,0.29960937500000007
72,521729.5475830033,1138.6626250023255,True,203,vc.png,saint vincent and the grenadines,0.250390625
73,528768.3373330074,inf,True,87,ht.png,haiti,0.47929687499999996
74,541842.9519580095,2090.8570419996977,True,3,ag.png,antigua and barbuda,0.38007812499999993
75,551870.0418329972,inf,False,82,gw.png,guinea bissau,0.349609375
76,562986.4676249999,inf,True,87,ht.png,haiti,0.48828125
77,568460.7437920058,1988.567291002255,True,189,tl.png,timor leste,0.20156249999999998
78,573838.9562500088,1098.3955419942504,True,8,ar.png,argentina,0.20078125
79,578065.6282920099,1208.6609999969369,True,108,kp.png,north korea,0.3
80,583072.3346250015,1159.8720000038156,True,36,ck.png,cook islands,0.3
81,587912.1074170107,964.0312079864088,True,108,kp.png,north korea,0.3
82,592741.4349169994,1389.4702910038177,True,36,ck.png,cook islands,0.3
83,597435.4471670085,1098.3143329940503,True,82,gw.png,guinea bissau,0.34921875
84,603232.5036670081,1230.070165998768,True,87,ht.png,haiti,0.487890625
85,608020.82208301,857.8622919885674,True,176,sm.png,san marino,0.3
86,612404.0267079981,697.681959005422,True,120,lu.png,luxembourg,0.3
87,617246.3939169975,1009.2436660052044,True,176,sm.png,san marino,0.3
88,623899.3930419965,862.0351660065353,True,120,lu.png,luxembourg,0.3
89,629171.0970830027,808.3042500074953,True,136,mu.png,mauritius,0.3
90,636615.9161250107,868.3726249873871,True,108,kp.png,north korea,0.250390625
91,641376.401875008,2656.714832992293,True,136,mu.png,mauritius,0.3
92,648562.8212080046,1031.3235420035198,True,36,ck.png,cook islands,0.250390625
93,653375.5396250053,1044.285583004239,True,87,ht.png,haiti,0.48750000000000004
94,657364.3845000042,1321.6353330062702,True,14,bb.png,barbados,0.20078125
95,662128.0153749976,966.8610420048935,True,132,mo.png,macao,0.3
96,666159.1425420047,1766.7795000015758,True,176,sm.png,san marino,0.250390625
97,671699.4547500071,1162.111208002898,False,132,mo.png,macao,0.3
98,675705.9547500103,990.6370829994557,True,120,lu.png,luxembourg,0.250390625
99,680866.434333002,1235.3151669958606,True,183,sy.png,syria,0.3
100,685632.8888749995,5239.705792002496,False,82,gw.png,guinea bissau,0.398828125
101,694349.0200420056,1740.4117910045898,True,183,sy.png,syria,0.3
102,699047.4584170006,1277.8578750003362,True,136,mu.png,mauritius,0.250390625
103,705452.9707500042,1024.3075829930604,True,139,mx.png,mexico,0.22539062500000004
104,709794.9749580002,1023.0507090018364,True,87,ht.png,haiti,0.4378906250000001
105,713649.8062500032,1056.3078749983106,True,34,ch.png,switzerland,0.3
106,719028.1567080092,758.7998339877231,True,132,mo.png,macao,0.250390625
107,722796.128832997,912.8687500051456,True,34,ch.png,switzerland,0.3
108,728054.2161670019,1393.533958005719,True,82,gw.png,guinea bissau,0.3984375
109,734070.9486670094,inf,True,45,cz.png,czechia,0.3
110,740972.9704580095,1217.7177919948008,False,118,ls.png,lesotho,0.29999999999999993
111,746372.7649170032,4553.299207997043,False,45,cz.png,czechia,0.3
112,757086.0779580107,1112.0287919911789,True,183,sy.png,syria,0.250390625
113,761012.3599170038,741.6666250064736,True,210,za.png,south africa,0.3
114,765397.4107079994,1002.6836670003831,True,126,me.png,montenegro,0.3
115,773708.5510830075,1301.2652499892283,True,210,za.png,south africa,0.3
116,778460.6570830074,1313.2155839994084,True,126,me.png,montenegro,0.3
117,784343.7492079975,766.010625011404,True,34,ch.png,switzerland,0.250390625
118,788846.8625000096,823.6772079981165,True,148,np.png,nepal,0.3
119,792688.5391670075,750.1715409889584,True,35,ci.png,ivory coast,0.3
120,797205.2625829965,876.0637090017553,True,148,np.png,nepal,0.3
121,801101.0476670053,499.45420799485873,True,35,ci.png,ivory coast,0.3
122,805286.4653330034,6395.09404200362,False,45,cz.png,czechia,0.349609375
123,814645.4018329969,1292.7779170131544,True,82,gw.png,guinea bissau,0.34882812500000004
124,819809.7745420091,1162.2494579933118,True,202,uz.png,uzbekistan,0.20078125
125,826239.2269999982,909.8162500013132,True,210,za.png,south africa,0.250390625
126,830491.041041998,2905.272750009317,True,3,ag.png,antigua and barbuda,0.3804687499999999
127,838493.0894999998,6558.573333008098,False,126,me.png,montenegro,0.349609375
128,849148.0587080005,719.2979999963427,True,148,np.png,nepal,0.250390625
129,852742.5969580072,5556.923458992969,True,45,cz.png,czechia,0.39921874999999996
130,862534.5681250037,7358.414792004623,True,35,ci.png,ivory coast,0.349609375
131,873443.0695830088,1073.0132089956896,True,118,ls.png,lesotho,0.250390625
132,877953.0145830067,4899.918541996158,False,203,vc.png,saint vincent and the grenadines,0.29999999999999993
133,886160.2399170079,1112.1916659903945,True,126,me.png,montenegro,0.30000000000000004
134,891835.2640420053,inf,True,45,cz.png,czechia,0.4488281249999999
135,929729.224708004,1460.58566699503,True,35,ci.png,ivory coast,0.30000000000000004
136,934766.4903749974,1121.4528330019675,True,45,cz.png,czechia,0.44843749999999993
137,1093183.7844990077,9948.363999996334,True,87,ht.png,haiti,0.46250000000000013
138,1106276.7539990018,1415.9678750000894,True,45,cz.png,czechia,0.41289062499999996
139,1110988.98345801,2059.53645799309,True,203,vc.png,saint vincent and the grenadines,0.250390625
140,1121357.1799990023,1527.1829169942066,True,25,bs.png,bahamas,0.2500000000000001
141,1125765.7639160026,7780.574292002711,False,206,vu.png,vanuatu,0.34843750000000007
142,1138306.280499004,987.1649590057787,True,108,kp.png,north korea,0.20078125
143,1142541.040748998,2595.49445900484,True,211,zm.png,zambia,0.275
144,1148251.5443739975,1099.9215840129182,True,36,ck.png,cook islands,0.20078125
145,1153024.1756660107,1557.6454579860438,True,176,sm.png,san marino,0.20078125
146,1158246.7387080104,5541.500332998112,True,87,ht.png,haiti,0.4746093750000001
147,1166694.1697489964,1105.5513750035316,True,120,lu.png,luxembourg,0.20078125
148,1171905.8336239979,887.9628340071067,True,132,mo.png,macao,0.20078125
149,1175860.807916004,2185.347124992404,True,3,ag.png,antigua and barbuda,0.3785156249999999
150,1184613.1770830108,1931.8364579956979,True,136,mu.png,mauritius,0.20078125
151,1191019.2482490093,1509.6970000013243,True,45,cz.png,czechia,0.36328125
152,1196378.9039160036,3500.8189579967875,True,206,vu.png,vanuatu,0.34882812500000004
153,1206213.9232490007,1279.6871250029653,True,126,me.png,montenegro,0.2503906250000001
154,1211948.8570410032,5750.499500005273,True,82,gw.png,guinea bissau,0.3984375
155,1222649.8571660048,2165.213375003077,True,87,ht.png,haiti,0.47421875000000013
156,1227574.7542910103,835.2824169995729,True,34,ch.png,switzerland,0.20078125
157,1232217.7172910015,1532.456291999435,True,183,sy.png,syria,0.20078125
158,1236550.3676240041,1333.5525000002235,True,35,ci.png,ivory coast,0.2503906250000001
159,1241295.7459160099,788.0029999939725,True,148,np.png,nepal,0.20078125
160,1244847.1622490033,1326.7313340038527,True,210,za.png,south africa,0.20078125
161,1249636.4797910065,2908.576957997866,True,82,gw.png,guinea bissau,0.408203125
162,1256435.6119580043,1068.442290998064,True,5,am.png,armenia,0.3
163,1261557.986041007,727.6639579939656,True,11,aw.png,aruba,0.3
164,1265538.5789990104,1954.0278339991346,True,5,am.png,armenia,0.3
165,1271303.2511240016,3463.927749995608,True,11,aw.png,aruba,0.3
166,1277574.7979580048,1106.101832992863,True,161,py.png,paraguay,0.3
167,1284508.9584990055,1237.0667920040432,True,87,ht.png,haiti,0.47382812500000016
168,1288477.2130409982,1047.458166998811,True,161,py.png,paraguay,0.3
169,1293425.2749160076,1305.4221249914262,True,56,er.png,eritrea,0.3
170,1299024.3419580073,789.4051249898039,True,37,cl.png,chile,0.3
171,1302556.783999011,1101.8314999963623,True,56,er.png,eritrea,0.3
172,1307018.966124,1161.8304169969633,True,37,cl.png,chile,0.3
173,1310859.525291002,1065.2095830007456,True,179,sr.png,suriname,0.3
174,1315805.4307490094,11390.261041990016,True,5,am.png,armenia,0.349609375
175,1330941.763583003,4452.041708005825,False,179,sr.png,suriname,0.3
176,1338055.1604990033,5468.186041994952,True,11,aw.png,aruba,0.349609375
177,1346347.6774989977,1923.5452920109965,True,82,gw.png,guinea bissau,0.35859375000000004
178,1352159.582791006,9121.787208001362,True,161,py.png,paraguay,0.349609375
179,1364873.2623329996,14496.533124998678,True,56,er.png,eritrea,0.349609375
180,1382835.55566601,18500.55270799203,True,37,cl.png,chile,0.349609375
181,1403979.2845830088,3405.5833329912275,True,5,am.png,armenia,0.390625
182,1410810.1779990103,816.7872499907389,True,11,aw.png,aruba,0.34921875
183,1414443.573541008,inf,False,179,sr.png,suriname,0.349609375
184,1431998.3261239976,1099.2076670082752,True,161,py.png,paraguay,0.30000000000000004
185,1436649.50574901,998.5868339864537,True,56,er.png,eritrea,0.30000000000000004
186,1440874.6341240038,1708.7012090052012,True,87,ht.png,haiti,0.4492187500000001
187,1445302.5118740043,4906.265041994629,False,37,cl.png,chile,0.38749999999999996
188,1452807.110958005,4349.040582994232,True,206,vu.png,vanuatu,0.34921875
189,1460418.3687490004,inf,True,5,am.png,armenia,0.41523437500000004
190,1470941.7466239976,2474.4695000117645,True,179,sr.png,suriname,0.34921875
191,1477926.6729579978,1798.7572910059243,True,3,ag.png,antigua and barbuda,0.3414062499999999
192,1484111.6830410028,23067.160374994157,True,37,cl.png,chile,0.412109375
193,1509795.4958740012,847.1900840085,True,5,am.png,armenia,0.390625
194,1514064.978333001,892.6510830060579,True,11,aw.png,aruba,0.29960937500000007
195,1518114.745208004,3848.6584579949267,True,45,cz.png,czechia,0.363671875
196,1525208.3273330063,inf,True,37,cl.png,chile,0.4320312500000001
197,1532286.5515410085,1127.4899999988265,True,23,bo.png,bolivia,0.3
198,1536669.1026240005,632.6648749965243,True,119,lt.png,lithuania,0.3
199,1541125.4312490055,714.4939589926507,True,23,bo.png,bolivia,0.3
200,1544906.5654989972,768.1875420094002,True,119,lt.png,lithuania,0.3
201,1551077.4854580085,889.2450409913436,True,110,kw.png,kuwait,0.3
202,1555466.7219580007,818.848708004225,True,10,au.png,australia,0.3
203,1559967.8524580086,1714.5452909898013,True,110,kw.png,kuwait,0.3
204,1564637.6007910003,814.8398330085911,True,10,au.png,australia,0.3
205,1568859.7360830028,1694.7172910002992,True,179,sr.png,suriname,0.34882812500000004
206,1574155.0624160008,3191.0100420066155,True,37,cl.png,chile,0.43242187500000007
207,1580085.177083005,2494.170791003853,True,149,nr.png,nauru,0.2468750000000001
208,1586057.9281240061,863.3149169909302,True,158,ps.png,palestine,0.3
209,1592640.2032909973,3463.943499998888,True,23,bo.png,bolivia,0.349609375
210,1599286.4357080106,1478.6009999953676,True,158,ps.png,palestine,0.3
211,1604394.3469990045,1626.9869590033777,True,119,lt.png,lithuania,0.250390625
212,1609641.1404160026,1016.7128330066334,True,110,kw.png,kuwait,0.250390625
213,1613596.32224901,1622.4583749861922,True,5,am.png,armenia,0.390234375
214,1618953.6872080062,897.0829579920974,True,10,au.png,australia,0.250390625
215,1622952.60941601,1593.3862079982646,True,87,ht.png,haiti,0.39960937500000016
216,1627473.4209580056,inf,False,206,vu.png,vanuatu,0.398828125
217,1663375.751166008,1836.000124996528,True,23,bo.png,bolivia,0.30000000000000004
218,1668388.132416003,1368.4808749966323,False,37,cl.png,chile,0.48203125
219,1672451.056749007,1051.3165000011213,True,158,ps.png,palestine,0.250390625
220,1676939.6546240023,1085.9967500001658,True,206,vu.png,vanuatu,0.3984375
221,1681400.5367909996,1424.6066670019645,True,37,cl.png,chile,0.48164062500000004
222,1685689.4082490033,1679.8653750012163,True,161,py.png,paraguay,0.2503906250000001
223,1690817.0692080022,1051.1324999970384,True,56,er.png,eritrea,0.2503906250000001
224,1695660.3459580075,776.7485829971265,True,112,la.png,laos,0.3
225,1699130.4911659972,2158.538042000262,True,179,sr.png,suriname,0.33906250000000004
226,1704840.5684989993,1180.2480839979835,True,112,la.png,laos,0.3
227,1708716.6130410042,836.057332999073,True,134,mr.png,mauritania,0.3
228,1715050.8273330051,970.974625000963,True,143,ne.png,niger,0.3
229,1719237.581791007,1299.3064579931088,True,134,mr.png,mauritania,0.3
230,1724554.2475410039,459.33691700338386,True,143,ne.png,niger,0.3
231,1727983.6557490053,36180.28916699393,True,37,cl.png,chile,0.50703125
232,1770956.7557490082,818.9796249936335,True,112,la.png,laos,0.250390625
233,1774399.9161240063,1182.5812089955434,True,37,cl.png,chile,0.49492187500000007
234,1778323.3013330027,5784.109415995888,True,5,am.png,armenia,0.390625
235,1787389.875124005,3047.4473340001423,False,134,mr.png,mauritania,0.349609375
236,1796020.5749580055,829.5534999924712,True,143,ne.png,niger,0.250390625
237,1799595.3715829966,1095.8572910020594,True,206,vu.png,vanuatu,0.398046875
238,1804344.8317489964,1551.0921670068055,True,45,cz.png,czechia,0.3140625
239,1809138.143083008,8351.567582998425,True,82,gw.png,guinea bissau,0.408203125
240,1821090.0834990025,1211.0313750018831,True,37,cl.png,chile,0.4453125000000001
241,1825029.7739579983,1611.8877500121016,True,211,zm.png,zambia,0.273046875
242,1829657.085291008,1064.5255419951864,True,134,mr.png,mauritania,0.30000000000000004
243,1834393.8798330054,813.3947909956332,True,109,kr.png,south korea,0.3
244,1839483.1054990063,6007.167208997998,True,82,gw.png,guinea bissau,0.4203125
245,1849427.4459580048,882.7866659993306,True,109,kr.png,south korea,0.3
246,1853691.5332080098,855.4641249938868,True,57,es.png,spain,0.3
247,1857640.2005830023,844.7929999965709,True,95,ir.png,iran,0.3
248,1861139.1354160006,inf,True,57,es.png,spain,0.3
249,1866588.0201660038,434.6999169939663,True,95,ir.png,iran,0.3
250,1869749.586874008,818.1897499889601,True,86,hr.png,croatia,0.3
251,1874299.7654580104,789.0405829965603,True,159,pt.png,portugal,0.3
252,1879983.4951660014,3276.963124997448,False,86,hr.png,croatia,0.3
253,1889236.1629990046,736.1432500039227,True,159,pt.png,portugal,0.3
254,1894982.045541008,1506.995332994964,True,23,bo.png,bolivia,0.25273437500000007
255,1899554.4890410092,1560.476499987999,True,5,am.png,armenia,0.34101562500000004
256,1904307.1564580023,690.7698749999981,True,109,kr.png,south korea,0.250390625
257,1908388.6340830068,829.2785829980858,True,57,es.png,spain,0.250390625
258,1912083.5762490025,2577.206834001001,True,82,gw.png,guinea bissau,0.426171875
259,1919307.8446240106,817.8687919862568,True,95,ir.png,iran,0.250390625
260,1923040.2088740084,1690.2957089913543,True,11,aw.png,aruba,0.2500000000000001
261,1927578.200666001,1388.2364169985522,True,119,lt.png,lithuania,0.20078125
262,1932256.552166,1917.7636670065112,True,86,hr.png,croatia,0.250390625
263,1938066.5029579978,1163.7262080037035,True,110,kw.png,kuwait,0.20078125
264,1942293.4606659983,1484.952416998567,True,179,sr.png,suriname,0.319921875
265,1947537.8075409972,1301.340333011467,True,159,pt.png,portugal,0.250390625
266,1952829.0205829982,1089.9980000103824,True,206,vu.png,vanuatu,0.39765625000000004
267,1957564.497624,1109.4728750032373,True,10,au.png,australia,0.20078125
268,1961739.8827490106,1038.0438339926768,True,33,cg.png,congo,0.3
269,1965570.6756240106,736.0317919957452,True,81,gt.png,guatemala,0.3
270,1970032.8849990037,972.8956670006737,True,33,cg.png,congo,0.3
271,1973897.1872910042,1183.4592920057476,True,81,gt.png,guatemala,0.3
272,1979143.1306660087,1014.4172079891432,True,118,ls.png,lesotho,0.20078125
273,1983371.8479160015,881.6364170052111,True,207,ws.png,samoa,0.3
274,1987025.379083003,893.991791002918,True,184,sz.png,eswatini,0.3
275,1992578.6553329963,2076.7546660064254,True,207,ws.png,samoa,0.3
276,1997350.518708001,517.6296660066582,True,184,sz.png,eswatini,0.3
277,2001492.6029159978,1202.584541999502,True,37,cl.png,chile,0.39570312500000016
278,2319113.8605830055,12793.191999997478,False,33,cg.png,congo,0.27460937500000004
279,2335391.0087499972,5109.4048330122605,False,81,gt.png,guatemala,0.27460937500000004
280,2343541.711708007,2327.641416995786,False,207,ws.png,samoa,0.27460937500000004
281,2348497.784332998,1250.5250420072116,False,184,sz.png,eswatini,0.27460937500000004
282,2354474.1226250045,1296.0084170042537,True,82,gw.png,guinea bissau,0.42265624999999996
283,2359361.4416670026,10469.621333002578,False,134,mr.png,mauritania,0.33320312500000004
284,2372681.938833004,1358.755416993983,True,158,ps.png,palestine,0.20078125
285,2377456.711417006,1137.0973750017583,True,206,vu.png,vanuatu,0.3480468750000001
286,2381938.9605000033,1206.6929999999702,True,112,la.png,laos,0.20078125
287,2385762.4626250034,996.1826249929145,True,143,ne.png,niger,0.20078125
288,2389496.846417009,831.4395409980789,True,57,es.png,spain,0.20078125
289,2393186.3193330066,2041.2352089914493,True,95,ir.png,iran,0.20078125
290,2397972.0218750006,6001.779541999102,True,86,hr.png,croatia,0.29999999999999993
291,2408201.108207999,793.3172920020297,True,109,kr.png,south korea,0.20078125
292,2412323.924666998,inf,True,159,pt.png,portugal,0.29999999999999993
293,2423091.6118750027,inf,True,82,gw.png,guinea bissau,0.42460937499999996
294,2431546.8672920107,2224.6687499862164,True,134,mr.png,mauritania,0.33281250000000007
295,2438401.327125001,1798.760167002678,True,203,vc.png,saint vincent and the grenadines,0.20078125
296,2450290.88312501,inf,False,126,me.png,montenegro,0.30000000000000004
297,2459220.581000001,1645.1837920034304,True,179,sr.png,suriname,0.27031250000000007
298,2464327.4750420097,2802.2379999891855,True,3,ag.png,antigua and barbuda,0.351953125
299,2473041.0451670033,1279.6975410017185,True,33,cg.png,congo,0.27421875000000007
300,2477041.4896669975,2012.1281250026077,True,35,ci.png,ivory coast,0.2062500000000001
301,2482654.405708003,2861.392083999701,True,81,gt.png,guatemala,0.2757812500000001
302,2488915.729458007,1652.3102499926463,True,86,hr.png,croatia,0.29960937499999996
303,2493830.0145000103,inf,False,207,ws.png,samoa,0.28125
304,2501106.7282919977,877.813833008986,True,184,sz.png,eswatini,0.27421875000000007
305,2505792.55150001,1108.0577079993673,True,159,pt.png,portugal,0.250390625
306,2511717.3553750035,inf,True,37,cl.png,chile,0.39609375000000013
307,2517121.008041999,2148.224666001741,True,87,ht.png,haiti,0.37265625000000013
308,2522129.642,9421.126250002999,True,5,am.png,armenia,0.390625
309,2534953.1228749985,1766.2040420109406,True,82,gw.png,guinea bissau,0.42421875
310,2540423.7996250014,4524.468792005908,True,126,me.png,montenegro,0.30742187500000007
311,2549429.7147920006,1112.2750829965807,True,54,eg.png,egypt,0.15117187499999998
312,2553563.6687079966,1586.2144590066746,True,67,gb-nir.png,northern ireland,0.15117187499999998
313,2559940.0856249994,2106.2314580050297,True,5,am.png,armenia,0.36601562499999996
314,2565454.705917,1007.8177079996094,True,84,hk.png,hong kong,0.3
315,2570033.474833006,903.8409170024097,True,62,fo.png,faroe islands,0.3
316,2575369.284917004,1032.0462499945424,True,84,hk.png,hong kong,0.3
317,2579626.9282919965,526.6130000092089,True,62,fo.png,faroe islands,0.3
318,2584006.5092919976,992.5634579993784,True,197,tz.png,tanzania,0.3
319,2588314.984458004,830.0130419954658,True,156,pk.png,pakistan,0.3
320,2592415.0185000035,1340.0773330065422,True,197,tz.png,tanzania,0.3
321,2596988.141249996,916.727083007805,True,156,pk.png,pakistan,0.3
322,2601248.191167004,inf,True,134,mr.png,mauritania,0.33320312500000004
323,2607581.667708,982.9266250017099,True,41,cr.png,costa rica,0.3
324,2612437.6432920108,965.9417079966515,True,31,cd.png,democratic republic of the congo,0.3
325,2622381.7157500014,4001.2967920051888,False,41,cr.png,costa rica,0.3
326,2629190.036583008,1066.2635420016013,True,31,cd.png,democratic republic of the congo,0.3
327,2636551.265957998,774.8981670010835,True,84,hk.png,hong kong,0.250390625
328,2640382.0730419974,1165.833500010427,True,62,fo.png,faroe islands,0.250390625
329,2645016.752292009,1213.2057079873048,True,197,tz.png,tanzania,0.250390625
330,2649436.4526670105,723.4858749872074,True,156,pk.png,pakistan,0.250390625
331,2653384.467875003,968.7376250075176,True,22,bn.png,brunei,0.3
332,2657786.5947920075,1039.0023329961114,True,17,bf.png,burkina faso,0.3
333,2663081.9345830097,inf,True,22,bn.png,brunei,0.3
334,2682569.5602500057,inf,False,17,bf.png,burkina faso,0.3
335,2688631.880125002,4513.663042001892,True,41,cr.png,costa rica,0.349609375
336,2696349.755333009,1978.7472919994034,True,31,cd.png,democratic republic of the congo,0.250390625
337,2705158.8848750107,1336.4853749955073,True,82,gw.png,guinea bissau,0.374609375
338,2712037.383542003,1122.8557500001043,True,22,bn.png,brunei,0.250390625
339,2716197.6227920093,1273.5109579954296,True,211,zm.png,zambia,0.24765625000000002
340,2720335.069749999,1156.081333000213,True,96,is.png,iceland,0.15117187499999998
341,2724684.1065420015,2336.0075410017744,True,86,hr.png,croatia,0.2875
342,2730721.1785420077,1530.8042499963194,True,41,cr.png,costa rica,0.34921875
343,2735491.8376249988,7468.54170800373,False,17,bf.png,burkina faso,0.349609375
344,2745689.6691250005,3806.034958004486,True,139,mx.png,mexico,0.275
345,2752583.3920830046,2589.1116669955663,True,37,cl.png,chile,0.4003906250000001
346,2757954.5450830045,1540.8444170025177,True,3,ag.png,antigua and barbuda,0.3414062499999999
347,2764648.962667008,1499.4363750014454,True,83,gy.png,guyana,0.3
348,2769235.2245000075,1582.0467079901136,True,207,ws.png,samoa,0.277734375
349,2773706.6331670065,5785.343374998774,False,83,gy.png,guyana,0.3
350,2782380.8378329994,3323.721624998376,True,17,bf.png,burkina faso,0.39921874999999996
351,2789543.213249999,975.1647500088438,True,126,me.png,montenegro,0.3070312500000001
352,2796005.3962920066,1032.010415990837,True,162,qa.png,qatar,0.3
353,2800815.1497080107,974.1958749946207,True,47,dj.png,djibouti,0.3
354,2809600.2998750047,756.6475000055507,True,162,qa.png,qatar,0.3
355,2813266.50308301,1965.2826249948703,True,47,dj.png,djibouti,0.3
356,2818744.608417008,1502.1759999943897,True,17,bf.png,burkina faso,0.398828125
357,2824108.468250008,6938.187957988586,True,83,gy.png,guyana,0.349609375
358,2834230.7747080047,inf,True,41,cr.png,costa rica,0.398828125
359,2839981.054707998,1560.223042004276,True,81,gt.png,guatemala,0.2753906250000001
360,2844835.301166997,13777.285791002214,False,33,cg.png,congo,0.276953125
361,2861531.775292009,728.6905410001054,True,162,qa.png,qatar,0.250390625
362,2865133.216458009,10700.078458990902,False,47,dj.png,djibouti,0.349609375
363,2879325.0596249998,1075.1614170004614,True,83,gy.png,guyana,0.34921875
364,2884003.520333004,1214.42962500453,True,41,cr.png,costa rica,0.3984375
365,2888464.653125004,1583.0473329983652,True,17,bf.png,burkina faso,0.38984374999999993
366,2893979.0247920025,1036.6128750033677,True,134,mr.png,mauritania,0.30859375
367,2899258.6584579987,870.9394169999287,True,139,mx.png,mexico,0.27460937500000004
368,2903376.753500008,881.7356669893488,True,184,sz.png,eswatini,0.22460937500000008
369,2908154.7267080024,inf,True,5,am.png,armenia,0.40546874999999993
370,2955675.9415420094,1110.3607080001384,True,47,dj.png,djibouti,0.30000000000000004
371,2960493.535375004,929.5722499955446,True,56,er.png,eritrea,0.2007812500000001
372,2965484.850000008,1118.1082080001943,True,5,am.png,armenia,0.40507812499999996
373,2969964.566833005,1265.2337920009159,True,41,cr.png,costa rica,0.34882812500000004
374,2974840.6432500053,1156.1498749940656,True,83,gy.png,guyana,0.29960937500000007
375,2979140.182208008,15877.036124991253,True,161,py.png,paraguay,0.30000000000000004
376,2999005.3162499974,4293.235958000645,True,197,tz.png,tanzania,0.29999999999999993
377,3006612.077124999,1361.657125002239,True,17,bf.png,burkina faso,0.340234375
378,3012221.112291998,852.4842500044033,True,156,pk.png,pakistan,0.20078125
379,3016332.4427920016,910.7100410037674,True,84,hk.png,hong kong,0.20078125
380,3020241.2589580053,2628.0489170020446,True,62,fo.png,faroe islands,0.25078124999999996
381,3026713.8589170063,5355.494082992896,True,37,cl.png,chile,0.45000000000000007
382,3034819.403125002,5196.747082998976,True,23,bo.png,bolivia,0.30234375
383,3042955.0800419967,3342.5880830036476,True,149,nr.png,nauru,0.2503906250000001
384,3049177.3717080066,1087.83004200086,True,37,cl.png,chile,0.40351562500000004
385,3194364.3731659977,1600.4990840009414,True,197,tz.png,tanzania,0.250390625
386,3199874.4431250086,1640.2004999984056,True,161,py.png,paraguay,0.2503906250000001
387,3205059.4472910017,inf,True,22,bn.png,brunei,0.29999999999999993
388,3213110.926458001,1268.7534169959836,True,5,am.png,armenia,0.4046875
389,3217760.9811250004,1826.6371659995057,True,23,bo.png,bolivia,0.254296875
390,3222639.2392080016,2700.8537920042872,True,31,cd.png,democratic republic of the congo,0.24374999999999997
391,3230798.2277080007,8960.780082998332,True,47,dj.png,djibouti,0.349609375
392,3243788.844082999,inf,True,25,bs.png,bahamas,0.29960937500000007
393,3250653.0773330014,753.5301669994369,True,162,qa.png,qatar,0.20078125
394,3254234.6857500086,6579.2335409936495,False,189,tl.png,timor leste,0.25117187499999993
395,3264825.6978330025,1603.2712500020862,True,45,cz.png,czechia,0.2699218750000001
396,3269893.397041,1098.5652500092983,True,126,me.png,montenegro,0.25742187500000013
397,3275024.123208001,1669.7381249978207,True,14,bb.png,barbados,0.15117187499999998
398,3280514.3125000033,1761.9141250033863,True,8,ar.png,argentina,0.15117187499999998
399,3285813.5937909973,10368.753834002186,True,22,bn.png,brunei,0.30351562499999996
400,3299220.934500001,1710.1656250017695,True,47,dj.png,djibouti,0.30000000000000004
401,3304196.5500829974,1283.463458006736,True,41,cr.png,costa rica,0.2992187500000001
402,3308788.0856249975,2215.34945801273,True,86,hr.png,croatia,0.266015625
403,3314089.54458301,1030.7248329920694,True,207,ws.png,samoa,0.27734375
404,3317866.582290997,1018.7592920120806,True,206,vu.png,vanuatu,0.29843750000000013
405,3322246.2506660083,5984.300958997104,True,25,bs.png,bahamas,0.30000000000000004
406,3331064.0746660065,inf,True,33,cg.png,congo,0.27812500000000007
407,3339517.3916250058,3261.7617910001427,True,5,am.png,armenia,0.40507812499999996
408,3345683.2539580064,5172.509124997072,True,81,gt.png,guatemala,0.2757812500000001
409,3354285.498500001,2207.0828330037184,False,83,gy.png,guyana,0.34921875
410,3360887.5799160013,1005.8641670038924,True,29,bz.png,belize,0.3
411,3369368.4979160028,773.2867500013672,True,49,dm.png,dominica,0.3
412,3374441.1757500055,685.8079999950714,True,29,bz.png,belize,0.3
413,3378065.872416002,2181.518833996728,False,49,dm.png,dominica,0.3
414,3383002.5357910055,1420.238083999604,True,17,bf.png,burkina faso,0.290625
415,3387946.49058301,997.2181249903515,True,53,ee.png,estonia,0.3
416,3391969.8994159987,929.8019170095213,True,55,eh.png,western sahara,0.3
417,3397497.813291004,3073.392874997575,False,53,ee.png,estonia,0.3
418,3403757.8860409996,3084.263084005099,False,55,eh.png,western sahara,0.3
419,3409786.9026660044,3851.3265840010718,True,189,tl.png,timor leste,0.25312499999999993
420,3416795.72304101,1023.3619999927469,True,83,gy.png,guyana,0.29960937500000007
421,3421100.345333005,987.579249995295,True,37,cl.png,chile,0.40156250000000004
422,3424758.147916,inf,True,29,bz.png,belize,0.349609375
423,3429814.390915999,3399.881334000267,False,49,dm.png,dominica,0.349609375
424,3436094.1398750003,1094.78337501036,True,139,mx.png,mexico,0.22500000000000006
425,3442532.1456660023,1146.6836670003831,True,42,cu.png,cuba,0.3
426,3446672.5736660007,813.2659590048715,True,53,ee.png,estonia,0.250390625
427,3450376.8935410045,3334.8537919954397,False,42,cu.png,cuba,0.3
428,3457019.088875008,inf,True,55,eh.png,western sahara,0.349609375
429,3463221.5399999986,853.3671660115942,False,59,fi.png,finland,0.3
430,3466933.6327909986,1058.2094170097262,True,73,gg.png,guernsey,0.3
431,3472043.6757499995,1436.6471660030074,True,59,fi.png,finland,0.3
432,3476647.669375001,1010.6845410047099,True,73,gg.png,guernsey,0.3
433,3480948.8147079973,82.51445800159127,False,29,bz.png,belize,0.39921874999999996
434,3484841.7766659986,19219.65404201206,True,49,dm.png,dominica,0.39921874999999996
435,3508589.999375006,12258.657832994126,False,42,cu.png,cuba,0.349609375
436,3523975.0747500076,972.5788329960778,True,55,eh.png,western sahara,0.34921875
437,3529200.4223749973,1036.8921250049025,True,29,bz.png,belize,0.398828125
438,3533137.2773750043,6748.863375003915,False,49,dm.png,dominica,0.4488281249999999
439,3545016.642500006,879.236583001446,True,59,fi.png,finland,0.250390625
440,3549835.378290998,1371.1408750098199,True,73,gg.png,guernsey,0.250390625
441,3554290.6197499977,952.1390000008978,True,49,dm.png,dominica,0.44843749999999993
442,3565637.9551660065,60547.97466700245,True,42,cu.png,cuba,0.39921874999999996
443,3629064.874333009,876.7162500009872,True,49,dm.png,dominica,0.42695312499999993
444,3633454.403833006,987.2064999942668,True,42,cu.png,cuba,0.398828125
445,3637116.600082998,1204.735333012417,True,29,bz.png,belize,0.34921875
446,3641163.029000003,1544.2741659935564,True,22,bn.png,brunei,0.303125
447,3646363.434333005,1477.7339580031112,True,55,eh.png,western sahara,0.29960937500000007
448,3652810.656916001,1337.3959169983864,True,5,am.png,armenia,0.35546875
449,3657817.663958005,1960.885874999687,False,62,fo.png,faroe islands,0.251953125
450,3662981.212915998,1390.4482500078157,True,3,ag.png,antigua and barbuda,0.30976562499999993
451,3669335.3060829975,1582.200292003341,True,134,mr.png,mauritania,0.30351562500000007
452,3676584.552333006,1355.905000003986,True,159,pt.png,portugal,0.20078125
453,3683306.093624997,1302.1337080132216,True,42,cu.png,cuba,0.3984375
454,3687313.4396660025,1068.7207919983193,True,25,bs.png,bahamas,0.2503906250000001
455,3691377.348082999,2071.035708009731,True,176,sm.png,san marino,0.16289062499999998
456,3697352.412666005,2047.5561670027673,True,132,mo.png,macao,0.16289062499999998
457,3702394.5105410093,13270.47416698793,True,49,dm.png,dominica,0.45234374999999993
458,3719139.1285410062,1222.4689589929767,True,108,kp.png,north korea,0.15117187499999998
459,3723847.9020000086,10607.34587498894,True,148,np.png,nepal,0.250390625
460,3737311.9313750067,1381.08729099622,True,82,gw.png,guinea bissau,0.32500000000000007
461,3742568.5083749993,3573.120208006352,True,36,ck.png,cook islands,0.201171875
462,3749413.2627500077,1605.0820829984732,True,49,dm.png,dominica,0.402734375
463,3755475.8362499997,1899.3517909985967,True,37,cl.png,chile,0.355078125
464,3760242.567166002,1303.064292005729,True,120,lu.png,luxembourg,0.15117187499999998
465,3765648.611333003,887.0006250073202,True,34,ch.png,switzerland,0.15117187499999998
466,3770192.825000006,2577.320290991105,True,42,cu.png,cuba,0.406640625
467,3775498.43141601,1378.8036249899305,True,53,ee.png,estonia,0.20078125
468,3779804.8106250064,3082.508874998428,True,87,ht.png,haiti,0.3730468750000001
469,3785670.129666003,3168.994042003993,True,136,mu.png,mauritius,0.22539062499999998
470,3792445.444625002,1443.3605000087991,True,210,za.png,south africa,0.15117187499999998
471,3797279.891790997,1104.8572500003502,True,11,aw.png,aruba,0.20039062500000013
472,3801133.441958009,1450.3528329953551,True,202,uz.png,uzbekistan,0.15117187499999998
473,3806895.94675001,964.6826659883372,True,58,et.png,ethiopia,0.3
474,3811746.9846250024,956.5971660050564,True,200,us.png,united states of america,0.3
475,3819435.4975410094,1122.0428339876235,True,58,et.png,ethiopia,0.3
476,3824740.8982080086,870.354957995005,True,200,us.png,united states of america,0.3
477,3830290.5092910076,2160.6522499932908,True,183,sy.png,syria,0.15117187499999998
478,3835392.812457998,inf,True,47,dj.png,djibouti,0.349609375
479,3849244.833250006,2874.9451250042766,True,31,cd.png,democratic republic of the congo,0.24726562499999996
480,3858699.2867910014,inf,True,42,cu.png,cuba,0.40703124999999996
481,3879403.243041001,1445.8002500031143,True,58,et.png,ethiopia,0.250390625
482,3884201.005833005,886.9142079930753,True,200,us.png,united states of america,0.250390625
483,3890650.6614160025,977.1079170024022,True,29,bz.png,belize,0.29960937500000007
484,3894588.605500001,962.0538750025444,True,59,fi.png,finland,0.20078125
485,3900265.8336250023,5021.281958004925,True,73,gg.png,guernsey,0.29999999999999993
486,3908334.986415997,1129.0854590041563,True,47,dj.png,djibouti,0.30000000000000004
487,3912723.908333006,767.037333003711,True,148,np.png,nepal,0.20078125
488,3916330.3117500036,1067.3700829939917,True,20,bi.png,burundi,0.3
489,3920991.6021660026,1343.7684999955818,True,22,bn.png,brunei,0.253515625
490,3925757.79808301,inf,False,20,bi.png,burundi,0.3
491,3955639.6870000027,8375.414541005623,True,49,dm.png,dominica,0.40312499999999996
492,3967338.8190410044,13324.372999995481,True,42,cu.png,cuba,0.40742187499999993
493,3983337.7269580085,2018.0854169884697,False,20,bi.png,burundi,0.349609375
494,3988679.259916011,6540.338499995414,True,33,cg.png,congo,0.327734375
495,3998047.266791007,inf,True,207,ws.png,samoa,0.27851562500000004
496,4005408.999457999,4159.435792011209,True,73,gg.png,guernsey,0.32304687499999996
497,4012709.3419160084,2472.7619999903254,True,114,lc.png,saint lucia,0.3
498,4018823.176457998,1442.9034170024097,True,169,sc.png,seychelles,0.3
499,4023930.423291007,1596.5801249984652,False,114,lc.png,saint lucia,0.3
500,4029028.6333330004,25036.693041998893,True,169,sc.png,seychelles,0.3
501,4057324.026375005,7071.430875002872,False,20,bi.png,burundi,0.39921874999999996
502,4066945.5891660037,1038.0376249956898,True,55,eh.png,western sahara,0.2500000000000001
503,4071611.32520801,913.0775829982013,True,33,cg.png,congo,0.32734375000000004
504,4075491.3432500036,inf,False,114,lc.png,saint lucia,0.349609375
505,4087309.153166003,2550.1197499977425,True,20,bi.png,burundi,0.418359375
506,4093125.8893750054,847.280582995154,True,169,sc.png,seychelles,0.250390625
507,4097342.8840410053,2519.501250004396,True,42,cu.png,cuba,0.40703124999999996
508,4102533.5597079974,5262.103708010167,True,81,gt.png,guatemala,0.2972656250000001
509,4111156.7287910003,1694.7419589995407,True,189,tl.png,timor leste,0.25273437499999996
510,4116182.316375009,1984.6826249994338,True,49,dm.png,dominica,0.359765625
511,4121399.219915998,27645.610584004782,False,114,lc.png,saint lucia,0.39921874999999996
512,4152288.460249998,5146.869666001294,False,20,bi.png,burundi,0.42421875
513,4160736.412750004,876.5502500031143,True,114,lc.png,saint lucia,0.398828125
514,4164756.093832999,857.7770830015652,True,73,gg.png,guernsey,0.32265625
515,4169326.643458,1569.0169169977307,True,83,gy.png,guyana,0.2500000000000001
516,4174023.7183330026,817.0704999938607,True,99,jm.png,jamaica,0.3
517,4177893.796083008,810.8401249921881,True,205,vn.png,vietnam,0.3
518,4182033.882625008,4729.203415990807,True,99,jm.png,jamaica,0.3
519,4189706.1497910037,7319.067667005118,False,205,vn.png,vietnam,0.3
520,4200007.038000011,inf,True,20,bi.png,burundi,0.425390625
521,4207753.835708004,990.1161669986323,True,110,kw.png,kuwait,0.15117187499999998
522,4212878.569291002,6278.070000000298,True,197,tz.png,tanzania,0.29999999999999993
523,4222541.329166008,1447.3904170002788,True,114,lc.png,saint lucia,0.3984375
524,4227142.908082998,2862.464917008765,False,58,et.png,ethiopia,0.29999999999999993
525,4233672.921083009,3193.924124993384,False,99,jm.png,jamaica,0.349609375
526,4239494.362416008,844.322666991502,True,200,us.png,united states of america,0.20078125
527,4246337.17775,6971.20354100503,True,205,vn.png,vietnam,0.349609375
528,4396133.993083,32986.510083006695,False,99,jm.png,jamaica,0.375
529,4431884.311999005,1430.7584170019254,True,205,vn.png,vietnam,0.32265625
530,4436659.066458,1147.8153330096975,True,20,bi.png,burundi,0.42500000000000004
531,4441038.63249901,1201.4628339968622,True,114,lc.png,saint lucia,0.34882812500000004
532,4445688.789082997,2440.9985000090674,True,42,cu.png,cuba,0.406640625
533,4450920.897999007,1842.777124999091,True,58,et.png,ethiopia,0.250390625
534,4458068.290458003,929.3830410018563,True,99,jm.png,jamaica,0.369140625
535,4462286.7012490025,1237.936959004961,True,197,tz.png,tanzania,0.250390625
536,4466963.503874009,1931.999291991815,True,33,cg.png,congo,0.32695312500000007
537,4471600.162957999,875.3472910029814,True,73,gg.png,guernsey,0.273046875
538,4475723.353998997,889.1378750121221,True,169,sc.png,seychelles,0.20078125
539,4480639.079916,926.3712500100955,True,20,bi.png,burundi,0.39960937500000004
540,4484893.499748999,1006.1116669969633,True,81,gt.png,guatemala,0.2968750000000001
541,4489520.908207997,1499.404541012831,True,62,fo.png,faroe islands,0.25
542,4495059.376749006,1957.9599589928985,True,119,lt.png,lithuania,0.159765625
543,4500152.190791006,1269.9606249956414,True,41,cr.png,costa rica,0.2496093750000001
544,4504783.640458001,937.5187080008909,True,149,nr.png,nauru,0.21328125000000012
545,4508555.93579101,1030.9011669885367,True,87,ht.png,haiti,0.37265625000000013
546,4512319.112874,1688.0075840009376,True,10,au.png,australia,0.15117187499999998
547,4517263.455791006,2797.1447500027716,True,134,mr.png,mauritania,0.30390625000000004
548,4524452.455541003,1788.0776249952614,True,42,cu.png,cuba,0.40625
549,4528967.783291009,1124.8362920014188,True,116,lk.png,sri lanka,0.3
550,4533462.835333005,715.3067079922184,True,19,bh.png,bahrain,0.3
551,4537247.610124003,1663.789792000316,True,116,lk.png,sri lanka,0.3
552,4542419.636124003,1314.3347919974476,True,19,bh.png,bahrain,0.3
553,4546825.4237079965,904.88604101073,True,99,jm.png,jamaica,0.36875
554,4550974.943041001,1207.1670419974253,True,205,vn.png,vietnam,0.273046875
555,4555277.492374007,1377.565333998762,True,136,mu.png,mauritius,0.18593749999999998
556,4560039.550540998,839.3876250050962,True,68,gb-sct.png,scotland,0.3
557,4564006.36670801,973.5420829961076,True,15,bd.png,bangladesh,0.3
558,4568606.609374008,836.235583992675,True,68,gb-sct.png,scotland,0.3
559,4572642.042708001,942.6518330005929,True,15,bd.png,bangladesh,0.3
560,4577839.011707998,992.7065000087023,True,51,dz.png,algeria,0.3
561,4582305.379458005,778.2845829930156,True,60,fj.png,fiji,0.3
562,4585801.253999001,692.2632089992985,False,51,dz.png,algeria,0.3
563,4591658.593123997,1909.0034590046853,True,60,fj.png,fiji,0.3
564,4596375.270791003,1245.4579170010984,True,116,lk.png,sri lanka,0.250390625
565,4601656.560083007,866.6432909956202,True,19,bh.png,bahrain,0.250390625
566,4605499.9198330045,960.556958001107,True,181,st.png,sao tome and principe,0.3
567,4611536.768291,1095.4099170044065,True,188,tj.png,tajikistan,0.3
568,4616611.556582997,1599.6358330016956,False,181,st.png,sao tome and principe,0.3
569,4625987.69304101,12942.437707999721,False,188,tj.png,tajikistan,0.3
570,4642487.099833,735.4263330055401,True,68,gb-sct.png,scotland,0.250390625
571,4647004.197374001,3223.66316700913,False,15,bd.png,bangladesh,0.349609375
572,4652871.777583001,1310.6543750036508,True,51,dz.png,algeria,0.250390625
573,4657122.405791,875.2020829999819,True,60,fj.png,fiji,0.250390625
574,4660694.704416004,1762.5834579961374,True,20,bi.png,burundi,0.3500000000000001
575,4665655.833498997,2520.779124999419,False,181,st.png,sao tome and principe,0.349609375
576,4672769.338999001,1095.9808750050142,True,99,jm.png,jamaica,0.31914062500000007
577,4677081.717374007,inf,True,188,tj.png,tajikistan,0.349609375
578,4695131.847874,2015.228167001158,True,15,bd.png,bangladesh,0.30000000000000004
579,4700861.502123997,1847.5476670134813,True,42,cu.png,cuba,0.36835937500000004
580,4705427.142083004,987.7515830015764,True,114,lc.png,saint lucia,0.2992187500000001
581,4709645.94149901,inf,True,181,st.png,sao tome and principe,0.39921874999999996
582,4717928.475374007,953.3102919962257,True,86,hr.png,croatia,0.2640625
583,4722101.869165999,1671.6760830022395,True,188,tj.png,tajikistan,0.34921875
584,4727918.644416001,1782.807583003305,True,49,dm.png,dominica,0.3578125
585,4732918.922208002,919.7087500076741,True,57,es.png,spain,0.15117187499999998
586,4736684.05666601,2629.794749999419,True,179,sr.png,suriname,0.27070312500000004
587,4742747.5431240015,2071.6071670036763,True,181,st.png,sao tome and principe,0.398828125
588,4751055.609583011,936.4644999876618,True,29,bz.png,belize,0.2500000000000001
589,4754779.991874006,3692.805958999321,True,31,cd.png,democratic republic of the congo,0.2593749999999999
590,4765905.773708,11143.093000006862,False,17,bf.png,burkina faso,0.291015625
591,4780329.998832996,946.6098750131205,True,95,ir.png,iran,0.15117187499999998
592,4784056.288708001,1151.3611249979585,True,33,cg.png,congo,0.2773437500000001
593,4788037.369208002,6283.622415998951,True,207,ws.png,samoa,0.328125
594,4798701.871416008,872.6165419938043,True,122,ly.png,libya,0.3
595,4802459.959999003,4947.281583998352,True,181,st.png,sao tome and principe,0.44843749999999993
596,4811702.955415996,1009.2263330016285,True,122,ly.png,libya,0.3
597,4815495.815208007,1793.2604999952018,True,188,tj.png,tajikistan,0.29960937500000007
598,4821164.604624006,885.1472919918597,True,74,gh.png,ghana,0.3
599,4825025.546874007,1737.4422089923173,True,181,st.png,sao tome and principe,0.43632812499999996
600,4832034.802082999,3339.509916011244,True,74,gh.png,ghana,0.3
601,4838034.735124005,3761.9328750008717,True,47,dj.png,djibouti,0.349609375
602,4845109.269458001,998.403040997684,True,111,kz.png,kazakhstan,0.3
603,4850409.167624006,979.2607499985024,True,30,ca.png,canada,0.3

