trial,start_time,rt,correct,fact_id,question,answer,alpha
1,66623.58083299841,1122.7467500029888,False,24,br.png,brazil,0.3
2,69995.63108299844,inf,True,24,br.png,brazil,0.3
3,76731.286541999,3500.346291002643,False,3,ag.png,antigua and barbuda,0.3
4,82481.78187500162,385.68349999695783,True,3,ag.png,antigua and barbuda,0.3
5,88431.19258300067,3729.036624998116,True,193,tr.png,turkey,0.3
6,96018.86558299884,1263.1331250013318,True,22,bn.png,brunei,0.3
7,101494.37883299834,962.6374170002236,True,193,tr.png,turkey,0.3
8,105532.9474579994,788.0758339997556,True,22,bn.png,brunei,0.3
9,110951.66516699828,1005.4900410032133,True,24,br.png,brazil,0.250390625
10,115437.97337499927,1475.9065830003237,True,199,ug.png,uganda,0.3
11,120266.97879199855,1273.9024580005207,True,28,by.png,belarus,0.3
12,124905.53995799928,1551.3287920002767,True,199,ug.png,uganda,0.3
13,129602.97508299846,795.7023340022715,True,28,by.png,belarus,0.3
14,133614.33537500125,992.3302919996786,True,3,ag.png,antigua and barbuda,0.250390625
15,139441.45045800178,1438.2041669996397,True,67,gb-nir.png,northern ireland,0.3
16,146771.050542,968.5265000007348,True,89,id.png,indonesia,0.3
17,151335.50204199855,4530.854415999784,True,67,gb-nir.png,northern ireland,0.3
18,162671.90991700045,911.3057499998831,True,89,id.png,indonesia,0.3
19,167022.93095799905,1158.1348340005206,True,193,tr.png,turkey,0.250390625
20,171650.52500000093,1007.6396250005928,True,22,bn.png,brunei,0.250390625
21,175869.45220800044,1084.7498750008526,True,199,ug.png,uganda,0.250390625
22,180003.9239580001,1399.0881249992526,True,28,by.png,belarus,0.250390625
23,185139.83949999965,1105.149999999412,True,121,lv.png,latvia,0.3
24,189971.04587500144,1164.8846669995692,True,143,ne.png,niger,0.3
25,195285.0937080002,1148.663125000894,True,121,lv.png,latvia,0.3
26,199576.3026249988,1037.5072080023529,True,143,ne.png,niger,0.3
27,204543.1622920005,832.481249999546,True,67,gb-nir.png,northern ireland,0.250390625
28,210201.78591700096,1300.9179159998894,True,70,gd.png,grenada,0.3
29,216222.922500001,1157.743166997534,True,89,id.png,indonesia,0.250390625
30,221761.12329199896,3396.825791001902,True,70,gd.png,grenada,0.3
31,230749.9694170001,2349.435915999493,True,62,fo.png,faroe islands,0.3
32,239860.84699999992,1335.4360000012093,True,56,er.png,eritrea,0.3
33,247389.87062500019,3007.7156250008557,True,62,fo.png,faroe islands,0.3
34,255198.0842080011,2560.3844590004883,False,56,er.png,eritrea,0.3
35,272515.64349999896,884.7777500014054,True,121,lv.png,latvia,0.250390625
36,276531.0171249985,906.3906670016586,True,143,ne.png,niger,0.250390625
37,281285.7734999998,1777.591707999818,True,70,gd.png,grenada,0.250390625
38,286329.4362919987,1624.8351659997134,True,173,si.png,slovenia,0.3
39,293286.6111250005,4071.3623330011033,True,17,bf.png,burkina faso,0.3
40,302053.26145800063,1249.60595900123,True,173,si.png,slovenia,0.3
41,306677.8588749985,1038.9635000028647,True,17,bf.png,burkina faso,0.3
42,313345.3543329997,1162.4056250002468,True,62,fo.png,faroe islands,0.250390625
43,318686.3327499996,1718.3342919997522,True,56,er.png,eritrea,0.250390625
44,326176.1867919995,2176.475083000725,True,195,tv.png,tuvalu,0.3
45,334887.8152920006,1343.9015000003274,True,174,sk.png,slovakia,0.3
46,341176.3962920013,2049.3066249982803,True,195,tv.png,tuvalu,0.3
47,350200.34683300037,1203.3863340002135,True,174,sk.png,slovakia,0.3
48,355352.14220800117,1060.7530839988613,True,173,si.png,slovenia,0.250390625
49,362814.31362500007,2686.6673750010086,False,17,bf.png,burkina faso,0.349609375
50,371319.8755420017,1025.8997909986647,True,24,br.png,brazil,0.20078125
51,376053.89270800154,1331.8194999992265,True,198,ua.png,ukraine,0.3
52,380618.84329199896,858.8618749999441,True,8,ar.png,argentina,0.3
53,384988.74262499885,837.2847920000204,True,198,ua.png,ukraine,0.3
54,389023.6262500002,659.9203330006567,True,8,ar.png,argentina,0.3
55,393255.4377500019,981.1205829973333,True,195,tv.png,tuvalu,0.250390625
56,397843.999749999,1281.533875000663,True,183,sy.png,syria,0.3
57,403018.0158330004,1796.3890419995878,True,174,sk.png,slovakia,0.250390625
58,408544.6862079989,1032.7125000003725,True,183,sy.png,syria,0.3
59,413316.6508329996,2363.2205840003444,True,17,bf.png,burkina faso,0.34062499999999996
60,421351.7891670017,2414.4771249993937,True,3,ag.png,antigua and barbuda,0.22499999999999998
61,430133.3428750004,inf,True,188,tj.png,tajikistan,0.3
62,437967.015541999,900.1567500017118,True,198,ua.png,ukraine,0.250390625
63,441968.58354199864,997.3522500004619,True,188,tj.png,tajikistan,0.3
64,447591.07524999854,829.8061250025057,True,8,ar.png,argentina,0.250390625
65,451892.52587499865,962.3820000015548,True,59,fi.png,finland,0.3
66,456947.11270799965,1008.7195000014035,True,183,sy.png,syria,0.250390625
67,461118.0930420014,1222.6818749986705,True,59,fi.png,finland,0.3
68,466130.6557919998,1458.0643330009189,True,211,zm.png,zambia,0.3
69,471414.1067080018,1024.6053749978892,True,96,is.png,iceland,0.3
70,475591.42324999993,1586.0700830016867,True,211,zm.png,zambia,0.3
71,480694.67395800166,1034.8496669976157,True,96,is.png,iceland,0.3
72,486800.1725829999,3360.164083998883,True,199,ug.png,uganda,0.29999999999999993
73,495148.1867500006,1455.7941669991706,True,188,tj.png,tajikistan,0.250390625
74,501081.269792001,inf,True,28,by.png,belarus,0.29999999999999993
75,511754.23679199954,inf,True,59,fi.png,finland,0.349609375
76,517610.9282500001,934.804374999716,True,22,bn.png,brunei,0.20078125
77,522125.7271249997,1017.9294170011417,True,193,tr.png,turkey,0.20078125
78,526185.4414580012,2724.646874998114,True,17,bf.png,burkina faso,0.358984375
79,533178.1789580018,2339.791416998254,True,211,zm.png,zambia,0.27460937500000004
80,538449.8283749999,871.1984580004355,True,96,is.png,iceland,0.250390625
81,542634.4544999993,991.4850829991046,True,67,gb-nir.png,northern ireland,0.20078125
82,548088.3327920019,1748.6016249967506,True,180,ss.png,south sudan,0.3
83,554480.950000001,inf,True,59,fi.png,finland,0.39921874999999996
84,560610.6043750006,1187.7360420003533,True,180,ss.png,south sudan,0.3
85,565795.2337499992,1003.2457920024171,True,89,id.png,indonesia,0.20078125
86,572080.5829579986,1177.5325420021545,True,86,hr.png,croatia,0.3
87,576884.5644169997,1061.6592500009574,True,165,ru.png,russia,0.3
88,580899.8376249983,6057.819917001296,True,86,hr.png,croatia,0.3
89,590344.425416999,1095.2278330004774,True,165,ru.png,russia,0.3
90,594368.4854579987,1796.9241669998737,True,59,fi.png,finland,0.398828125
91,599188.2629579995,1327.1774999994086,True,199,ug.png,uganda,0.250390625
92,603505.1479169996,1384.2028330001049,True,28,by.png,belarus,0.250390625
93,608264.0717920003,958.2328750002198,True,121,lv.png,latvia,0.20078125
94,612292.3217079988,944.8720420005266,True,180,ss.png,south sudan,0.250390625
95,616991.5624999994,1000.4255419989349,True,143,ne.png,niger,0.20078125
96,621262.3764579985,2845.4863750011427,True,17,bf.png,burkina faso,0.36015625000000007
97,629185.1483749996,inf,False,70,gd.png,grenada,0.29999999999999993
98,641364.0289169998,1716.706915998715,True,86,hr.png,croatia,0.250390625
99,646575.1932919993,860.4847909992095,True,165,ru.png,russia,0.250390625
100,650420.7475000003,1379.2838330009254,True,130,mm.png,myanmar,0.3
101,655260.3294580004,1575.1114999984857,True,59,fi.png,finland,0.34921875
102,659962.736207999,991.7479590004077,True,130,mm.png,myanmar,0.3
103,664423.4300419993,3001.041166000534,True,56,er.png,eritrea,0.28437499999999993
104,671084.5082080014,1516.0143339998322,True,62,fo.png,faroe islands,0.20078125
105,677107.8979580016,1161.4847919991007,True,64,ga.png,gabon,0.3
106,681753.5284170008,1255.842582999263,True,25,bs.png,bahamas,0.3
107,688162.675042,975.4280829984928,True,64,ga.png,gabon,0.3
108,692299.2557920006,901.9563330003293,True,25,bs.png,bahamas,0.3
109,696366.3662920007,1640.8015829983633,True,173,si.png,slovenia,0.20078125
110,703483.4478750017,1580.5187499972526,False,190,tm.png,turkmenistan,0.3
111,710478.10475,893.8099580009002,True,130,mm.png,myanmar,0.250390625
112,714894.1525830014,1383.8339590001851,True,190,tm.png,turkmenistan,0.3
113,721039.1387499985,1489.5266670028213,True,211,zm.png,zambia,0.22500000000000006
114,725694.3369170004,5969.296791001339,True,70,gd.png,grenada,0.32539062499999993
115,736443.797625001,1063.7290419981582,True,195,tv.png,tuvalu,0.20078125
116,741894.235374999,893.0769170001149,True,64,ga.png,gabon,0.250390625
117,745837.9942079992,886.3719590008259,True,25,bs.png,bahamas,0.250390625
118,750595.0708749988,1873.9300000015646,True,174,sk.png,slovakia,0.20078125
119,756410.2013750016,843.0605829999549,True,198,ua.png,ukraine,0.20078125
120,760497.3510000018,2680.80141699838,True,17,bf.png,burkina faso,0.37382812500000007
121,768915.847458,1106.1211250015767,True,190,tm.png,turkmenistan,0.250390625
122,774470.9279579984,937.9676670032786,False,8,ar.png,argentina,0.29999999999999993
123,778845.8606669992,1109.0795830022544,True,183,sy.png,syria,0.20078125
124,784104.8203749997,1102.0487079985905,True,158,ps.png,palestine,0.3
125,788661.6475420014,1046.0927909989841,True,92,im.png,isle of man,0.3
126,793720.594333001,2624.8492499981076,True,158,ps.png,palestine,0.3
127,800292.2842500011,1101.1076249997132,True,92,im.png,isle of man,0.3
128,805571.1062080008,1051.10024999897,True,16,be.png,belgium,0.3
129,811893.0045000016,1185.2239170002285,True,128,mk.png,north macedonia,0.3
130,818553.3785420011,1323.5650829992956,True,16,be.png,belgium,0.3
131,823686.3539580009,798.6215419986984,True,128,mk.png,north macedonia,0.3
132,828916.6404169991,2058.1275830009254,True,188,tj.png,tajikistan,0.20625
133,836438.7549169988,inf,False,56,er.png,eritrea,0.2847656249999999
134,843009.0222079998,862.3732500018086,True,158,ps.png,palestine,0.250390625
135,847616.9211250017,1353.3879169989377,True,70,gd.png,grenada,0.3242187499999999
136,852815.2034580016,813.9897499969229,True,92,im.png,isle of man,0.250390625
137,858943.8602080009,1361.330416999408,True,96,is.png,iceland,0.20078125
138,863270.6839169987,1549.353665999719,True,69,gb-wls.png,wales,0.3
139,868686.8345000002,1135.2715419998858,True,16,be.png,belgium,0.250390625
140,874440.5731250008,938.3237500005635,True,69,gb-wls.png,wales,0.3
141,878237.2102920017,839.425290996558,True,128,mk.png,north macedonia,0.250390625
142,883829.3923329983,843.3043340010336,True,8,ar.png,argentina,0.250390625
143,889238.4926669984,1687.130625003134,True,17,bf.png,burkina faso,0.3617187500000001
144,895089.6058750004,inf,True,59,fi.png,finland,0.398828125
145,901836.430708001,1285.0487089998787,True,169,sc.png,seychelles,0.3
146,907438.6737919995,950.5637910006335,True,10,au.png,australia,0.3
147,914473.5740420001,1021.6466659985017,True,169,sc.png,seychelles,0.3
148,921911.2764579987,1070.9122500011,True,10,au.png,australia,0.3
149,927160.1922500012,811.9031249990221,True,69,gb-wls.png,wales,0.250390625
150,930825.2914580007,1744.698124999646,True,59,fi.png,finland,0.34921875
151,936026.3948329993,1123.4456250022631,True,207,ws.png,samoa,0.3
152,940347.6027079996,1921.0402089993004,True,180,ss.png,south sudan,0.20078125
153,946020.2032499983,1011.2211250016699,True,207,ws.png,samoa,0.3
154,950056.2137080014,1264.1741669976618,True,196,tw.png,taiwan,0.3
155,954520.7139170016,1364.542290997575,True,86,hr.png,croatia,0.20078125
156,961342.6709580016,835.395541998907,True,196,tw.png,taiwan,0.3
157,965547.624750001,930.3909999980824,True,169,sc.png,seychelles,0.250390625
158,971012.8580000019,1207.1183749976335,True,74,gh.png,ghana,0.3
159,975375.3264580009,1356.6421249997802,True,10,au.png,australia,0.250390625
160,981258.0321669993,792.8846659997944,True,74,gh.png,ghana,0.3
161,985418.8292079999,1498.8863340003882,True,165,ru.png,russia,0.20078125
162,990616.1470830011,2259.6267919980455,True,125,md.png,moldova,0.3
163,998231.3357499988,1218.38962500263,False,207,ws.png,samoa,0.349609375
164,1004396.297542,1496.3882080010371,False,125,md.png,moldova,0.3
165,1010181.319583,915.1288749999367,True,196,tw.png,taiwan,0.250390625
166,1015099.030333,1197.3705419986509,True,77,gm.png,gambia,0.3
167,1019398.3067920017,1274.8177079992602,True,194,tt.png,trinidad and tobago,0.3
168,1029369.4492079994,1662.7655840021325,True,77,gm.png,gambia,0.3
169,1034029.2521250013,864.8953749979846,False,194,tt.png,trinidad and tobago,0.3
170,1042785.7365829987,1119.22387500084,True,74,gh.png,ghana,0.250390625
171,1048028.6149999993,inf,True,207,ws.png,samoa,0.39921874999999996
172,1055911.3747500014,1060.3938749991357,True,130,mm.png,myanmar,0.20078125
173,1061273.4217920005,1002.2793749994598,True,125,md.png,moldova,0.250390625
174,1067554.715917002,1017.7746249972843,True,64,ga.png,gabon,0.20078125
175,1072549.640666999,1099.7754160016775,True,25,bs.png,bahamas,0.20078125
176,1077531.3567919985,1440.0427910003345,True,207,ws.png,samoa,0.398828125
177,1082065.9952499992,1517.2153330021538,True,77,gm.png,gambia,0.250390625
178,1086836.280083,816.943666999694,True,194,tt.png,trinidad and tobago,0.250390625
179,1094134.3176670016,inf,True,70,gd.png,grenada,0.32460937499999987
180,1129487.287,1195.9448330015875,True,190,tm.png,turkmenistan,0.20078125
181,1140499.4339580007,inf,True,17,bf.png,burkina faso,0.37460937500000013
182,1161399.938292001,1296.8926249996293,True,207,ws.png,samoa,0.34921875
183,1166243.2649580005,2158.199417001102,True,158,ps.png,palestine,0.21874999999999997
184,1171739.9380419992,3837.4637910020538,True,156,pk.png,pakistan,0.3
185,1179937.9835,1085.4665830009617,True,92,im.png,isle of man,0.20078125
186,1185145.15475,1270.9138329993002,True,156,pk.png,pakistan,0.3
187,1190348.7709580003,1081.3017090004869,True,152,pa.png,panama,0.3
188,1195931.5924580004,1048.3773749985266,True,16,be.png,belgium,0.20078125
189,1201001.9775830004,1026.0154169993475,True,152,pa.png,panama,0.3
190,1207510.968208,1213.921624999959,True,56,er.png,eritrea,0.28437499999999993
191,1212695.8709999998,1182.8647500006482,True,128,mk.png,north macedonia,0.20078125
192,1220842.4280420004,1048.2379579988774,True,118,ls.png,lesotho,0.3
193,1226813.3760000018,1255.0482499974314,True,6,ao.png,angola,0.3
194,1231248.2672920013,860.1084999972954,True,118,ls.png,lesotho,0.3
195,1236618.5928749982,712.6325000026263,True,6,ao.png,angola,0.3
196,1241126.9015420002,1662.2842910001054,True,156,pk.png,pakistan,0.250390625
197,1246261.040958001,1033.149458999047,True,210,za.png,south africa,0.3
198,1252495.7946670002,875.2302499997895,True,152,pa.png,panama,0.250390625
199,1257113.443041999,901.5084160019178,True,210,za.png,south africa,0.3
200,1265507.6038330006,892.1444589979947,True,69,gb-wls.png,wales,0.20078125
201,1269307.4525420016,1337.4987499990966,True,134,mr.png,mauritania,0.3
202,1279327.3083329988,2583.9661250028294,True,59,fi.png,finland,0.351953125
203,1286784.090500001,1129.0206249977928,True,134,mr.png,mauritania,0.3
204,1292073.1612080017,881.8072089997586,True,118,ls.png,lesotho,0.250390625
205,1296772.4292079983,1061.5734590028878,True,6,ao.png,angola,0.250390625
206,1300895.0352499997,2538.4513749994803,True,17,bf.png,burkina faso,0.37421875000000016
207,1307628.0130000014,966.388749999227,True,169,sc.png,seychelles,0.20078125
208,1312636.4095419995,886.0356660005637,True,210,za.png,south africa,0.250390625
209,1317254.3422080015,974.8663749997504,True,10,au.png,australia,0.20078125
210,1322496.7998749998,3052.3399170015473,True,19,bh.png,bahrain,0.3
211,1329180.7495829999,1474.9503339990042,True,196,tw.png,taiwan,0.20078125
212,1334303.3927079996,1376.3240840018261,True,19,bh.png,bahrain,0.3
213,1338887.1428329984,2749.456667002989,True,134,mr.png,mauritania,0.324609375
214,1345607.571042001,1121.8449160004966,True,119,lt.png,lithuania,0.3
215,1351017.5033749985,1006.8560420002323,True,159,pt.png,portugal,0.3
216,1356022.3039170015,1034.9681249971036,False,119,lt.png,lithuania,0.3
217,1360551.2073329992,1185.9747920024674,True,159,pt.png,portugal,0.3
218,1366456.8617920014,2442.8963329992257,True,74,gh.png,ghana,0.22499999999999998
219,1372165.380333001,1049.4207089976408,True,66,gb-eng.png,england,0.3
220,1376578.7038330017,3728.588374997489,True,70,gd.png,grenada,0.3742187499999998
221,1386353.1161249992,918.0308329998516,True,66,gb-eng.png,england,0.3
222,1391532.3153749995,971.6322919994127,True,19,bh.png,bahrain,0.250390625
223,1396000.6312920013,1318.2923749992624,True,207,ws.png,samoa,0.29960937500000007
224,1400602.8241249986,1525.0271670012735,True,125,md.png,moldova,0.20078125
225,1407522.6008749995,1276.0416669989936,True,119,lt.png,lithuania,0.250390625
226,1413580.692874999,970.954333002679,False,159,pt.png,portugal,0.349609375
227,1420274.6409169994,1317.8645410006866,True,134,mr.png,mauritania,0.275
228,1427053.4510830003,1674.8636250011623,True,70,gd.png,grenada,0.37382812499999984
229,1432745.7823330006,1388.4679590009619,True,77,gm.png,gambia,0.20078125
230,1438048.5122499994,1016.7225000003818,True,194,tt.png,trinidad and tobago,0.20078125
231,1449659.080958001,926.8817089980002,True,66,gb-eng.png,england,0.250390625
232,1453671.0982500007,4559.848832999822,True,3,ag.png,antigua and barbuda,0.250390625
233,1466525.3637919996,974.3985000022221,True,159,pt.png,portugal,0.30000000000000004
234,1474020.1152080009,920.4718750005122,True,135,mt.png,malta,0.3
235,1478754.9214169993,1055.6438330023084,True,0,ad.png,andorra,0.3
236,1484979.950875,1112.5021670013666,True,135,mt.png,malta,0.3
237,1489014.6561670008,497.71854099887423,True,0,ad.png,andorra,0.3
238,1493474.2642919992,2359.9425829998218,True,2,af.png,afghanistan,0.3
239,1506379.4907500015,1931.0152079996187,True,17,bf.png,burkina faso,0.3738281250000002
240,1512532.2949580005,1250.042084000539,True,2,af.png,afghanistan,0.3
241,1518830.465916999,1117.6198329995386,True,60,fj.png,fiji,0.3
242,1523039.4700830001,1421.7595420014113,True,153,pe.png,peru,0.3
243,1528320.615749999,1173.455750002293,True,60,fj.png,fiji,0.3
244,1532400.9490829995,587.0157919998746,True,153,pe.png,peru,0.3
245,1535970.1672500013,inf,True,135,mt.png,malta,0.349609375
246,1541780.7515419992,2001.9028330023866,True,0,ad.png,andorra,0.250390625
247,1547421.8459170007,2126.736457997933,True,59,fi.png,finland,0.33046875
248,1552800.2997500007,1195.1870419979095,True,191,tn.png,tunisia,0.3
249,1560222.1850829993,1107.1967089991085,True,104,kh.png,cambodia,0.3
250,1566407.5217499994,978.6849580013659,True,191,tn.png,tunisia,0.3
251,1570978.2029169982,902.984125001356,True,104,kh.png,cambodia,0.3
252,1575827.8530829994,1039.139291999163,True,2,af.png,afghanistan,0.250390625
253,1581201.0429580004,904.915709001245,True,60,fj.png,fiji,0.250390625
254,1584979.7975830007,860.0692090003286,True,135,mt.png,malta,0.30000000000000004
255,1589009.1124169994,1015.6611660022754,True,153,pe.png,peru,0.250390625
256,1593379.6826670005,1441.874374999432,True,70,gd.png,grenada,0.3242187499999999
257,1599058.4003330003,862.2380419983529,True,152,pa.png,panama,0.20078125
258,1603062.3967920002,2204.024291000562,True,156,pk.png,pakistan,0.20078125
259,1609719.9460420015,1172.4980829968117,True,199,ug.png,uganda,0.20078125
260,1613909.014375,1503.2024579995777,True,28,by.png,belarus,0.20078125
261,1618840.3302080005,895.9051669989713,True,191,tn.png,tunisia,0.250390625
262,1623122.5106249985,1075.6664170003496,True,104,kh.png,cambodia,0.250390625
263,1628102.9465829998,1016.1862919994164,True,118,ls.png,lesotho,0.20078125
264,1633321.915583001,1518.0056249992922,True,6,ao.png,angola,0.20078125
265,1638273.6440420013,942.2384159988724,True,210,za.png,south africa,0.20078125
266,1643268.9176249988,1418.8744580023922,True,172,sg.png,singapore,0.3
267,1649313.1879169997,1731.5434580012225,True,47,dj.png,djibouti,0.3
268,1656362.276374999,969.251917002257,True,172,sg.png,singapore,0.3
269,1660722.2337919993,551.1989160005469,True,47,dj.png,djibouti,0.3
270,1665646.0006250017,947.4096249977592,True,53,ee.png,estonia,0.3
271,1670850.373207999,850.1349170000758,True,91,il.png,israel,0.3
272,1677000.8142080004,4337.158250000328,True,53,ee.png,estonia,0.3
273,1684581.63325,902.3163749987725,True,91,il.png,israel,0.3
274,1690126.2439169986,971.4832080025226,True,164,rs.png,serbia,0.3
275,1695836.8730000001,1159.5930420008954,True,159,pt.png,portugal,0.2503906250000001
276,1701266.7892919998,1005.8598329997621,True,164,rs.png,serbia,0.3
277,1706030.4015830006,940.1834589990322,True,172,sg.png,singapore,0.250390625
278,1710335.7299169984,1804.6915830017533,True,47,dj.png,djibouti,0.250390625
279,1715942.3760829996,1890.2830000005197,True,45,cz.png,czechia,0.3
280,1724238.6675829985,1562.8131670018192,True,19,bh.png,bahrain,0.20078125
281,1734072.0349170007,1468.2182909999974,True,45,cz.png,czechia,0.3
282,1739534.2945830016,1372.8566669996362,True,53,ee.png,estonia,0.250390625
283,1744065.0293750004,902.0360419999342,True,91,il.png,israel,0.250390625
284,1748612.6692920006,1124.3746250001714,True,119,lt.png,lithuania,0.20078125
285,1754499.7519999996,1627.9976670013275,True,164,rs.png,serbia,0.250390625
286,1759406.5401670013,1571.3125410003122,True,56,er.png,eritrea,0.23476562499999995
287,1765093.3774170007,1617.288665998727,True,17,bf.png,burkina faso,0.32734375000000016
288,1770574.4540420019,1548.1607079964597,True,36,ck.png,cook islands,0.3
289,1780414.8795830007,1346.5829999984708,True,55,eh.png,western sahara,0.3
290,1791142.0868329988,1362.1487090021838,True,36,ck.png,cook islands,0.3
291,1796592.0732919986,2411.6804580006283,True,55,eh.png,western sahara,0.3
292,1804605.9155420007,1363.7817909985315,True,45,cz.png,czechia,0.250390625
293,1812150.546375,883.9360419989098,True,66,gb-eng.png,england,0.20078125
294,1816892.5729170004,1458.8962499983609,True,134,mr.png,mauritania,0.22539062500000004
295,1824583.305832999,970.9619170024525,True,135,mt.png,malta,0.2503906250000001
296,1829086.1933749984,2103.7963750022464,True,13,ba.png,bosnia and herzegovina,0.3
297,1843548.485583,1358.2266250015236,True,36,ck.png,cook islands,0.250390625
298,1849638.7261249984,1378.8638750009704,True,13,ba.png,bosnia and herzegovina,0.3
299,1858763.5545830016,1195.8012500000186,True,55,eh.png,western sahara,0.250390625
300,1866031.404417001,1506.8774159990717,True,0,ad.png,andorra,0.20078125
301,1870866.4828750007,1255.7557079999242,False,3,ag.png,antigua and barbuda,0.28593749999999996
302,1884218.3288749985,1364.5218330018688,True,211,zm.png,zambia,0.17539062500000005
303,1888973.0562080003,1200.7705840005074,True,14,bb.png,barbados,0.3
304,1895499.3767919987,inf,True,60,fj.png,fiji,0.29999999999999993
305,1900493.8020830015,870.73287499859,True,14,bb.png,barbados,0.3
306,1905249.290167001,1331.15799999726,True,13,ba.png,bosnia and herzegovina,0.250390625
307,1913668.2614169987,1460.9667910006829,True,153,pe.png,peru,0.20078125
308,1918086.3803329994,991.757542000385,True,8,ar.png,argentina,0.20078125
309,1922978.2359169985,1063.874625000637,True,122,ly.png,libya,0.3
310,1930592.3089999997,1002.6634579990059,True,192,to.png,tonga,0.3
311,1934466.938207999,1175.9658750016242,True,122,ly.png,libya,0.3
312,1939954.007583001,989.7135419996921,False,192,to.png,tonga,0.3
313,1944459.370583001,1064.3893339985516,True,2,af.png,afghanistan,0.20078125
314,1950328.5836670003,1196.0177500003483,True,104,kh.png,cambodia,0.20078125
315,1955507.8597499996,893.6068750007544,True,14,bb.png,barbados,0.250390625
316,1959914.888667001,902.5179999989923,True,191,tn.png,tunisia,0.20078125
317,1964030.7662919986,1200.7618750031106,True,102,ke.png,kenya,0.3
318,1968337.7271249993,1084.5356249990873,True,88,hu.png,hungary,0.3
319,1973885.798708001,1026.3070839974098,True,102,ke.png,kenya,0.3
320,1978421.4547080009,650.6253339976538,True,88,hu.png,hungary,0.3
321,1982984.1103750004,1244.871667000698,True,122,ly.png,libya,0.250390625
322,1987692.0783329988,1173.8727920018137,False,192,to.png,tonga,0.349609375
323,1991989.583999999,1257.1226250000764,True,18,bg.png,bulgaria,0.3
324,1997130.6018329996,1167.1476670017,True,60,fj.png,fiji,0.250390625
325,2001611.2387499998,6529.531874999404,True,18,bg.png,bulgaria,0.3
326,2012057.280500001,1256.3525419973303,True,184,sz.png,eswatini,0.3
327,2020911.4080420004,1634.0590000001248,True,44,cy.png,cyprus,0.3
328,2027277.0879169984,913.2443750023376,True,184,sz.png,eswatini,0.3
329,2033717.819458001,1249.4072919979226,True,44,cy.png,cyprus,0.3
330,2040243.5584999984,954.571833000984,True,102,ke.png,kenya,0.250390625
331,2044366.439958001,1026.5449590007775,True,88,hu.png,hungary,0.250390625
332,2048927.7290419997,1183.1624160003848,True,192,to.png,tonga,0.34921875
333,2054013.6151670013,1455.0991659997962,True,18,bg.png,bulgaria,0.250390625
334,2059953.9683330003,1922.7520419990178,True,47,dj.png,djibouti,0.20078125
335,2065513.5524580001,964.0949169988744,True,172,sg.png,singapore,0.20078125
336,2069872.3294170012,2384.8029159998987,False,3,ag.png,antigua and barbuda,0.287109375
337,2079257.1161250016,1967.2985420003533,True,184,sz.png,eswatini,0.250390625
338,2087325.0731670014,1028.29420799762,True,44,cy.png,cyprus,0.250390625
339,2092296.051207999,2158.3839590020943,True,53,ee.png,estonia,0.21874999999999997
340,2097712.8590829996,1963.777125001885,True,164,rs.png,serbia,0.20078125
341,2103294.9926250004,938.6244169981219,True,91,il.png,israel,0.20078125
342,2107831.9486670005,990.5238749999553,True,171,se.png,sweden,0.3
343,2113041.8778329985,1145.5360840009525,True,189,tl.png,timor leste,0.3
344,2119584.8213749994,1134.406875000801,True,171,se.png,sweden,0.3
345,2123833.298958001,625.8015419989824,True,189,tl.png,timor leste,0.3
346,2129909.585583002,1262.5225419979542,True,192,to.png,tonga,0.29960937500000007
347,2134708.4727500007,1053.4831250002608,True,63,fr.png,france,0.3
348,2138756.211417,1145.6652500014752,True,9,at.png,austria,0.3
349,2145299.9096669992,1161.7907910002396,True,63,fr.png,france,0.3
350,2149473.3388329986,13260.735417003278,False,9,at.png,austria,0.3
351,2165846.3980829986,1117.5652500023134,True,45,cz.png,czechia,0.20078125
352,2174916.5580000007,920.2230829978362,True,171,se.png,sweden,0.250390625
353,2179198.402667,1116.3319160002284,True,189,tl.png,timor leste,0.250390625
354,2186862.194500001,1165.2966669974849,True,207,ws.png,samoa,0.2500000000000001
355,2191401.492666999,1249.9199580014683,True,59,fi.png,finland,0.32695312499999996
356,2195667.3741669985,815.0109580019489,True,63,fr.png,france,0.250390625
357,2201887.073833001,1031.1627499973401,True,9,at.png,austria,0.250390625
358,2208134.5052920007,1085.5819579991512,True,36,ck.png,cook islands,0.20078125
359,2213438.241250002,1254.842916998081,True,55,eh.png,western sahara,0.20078125
360,2219630.0371670006,1051.9190829978324,True,24,br.png,brazil,0.15117187499999998
361,2225019.619667,1023.1704159998335,True,117,lr.png,liberia,0.3
362,2230216.973292001,1295.6924999998882,True,137,mv.png,maldives,0.3
363,2235913.0366669996,926.499875000678,True,117,lr.png,liberia,0.3
364,2240116.463292001,604.9904159992002,True,137,mv.png,maldives,0.3
365,2245175.244582999,964.1542090028524,True,124,mc.png,monaco,0.3
366,2250909.432542001,1039.7717499984428,True,205,vn.png,vietnam,0.3
367,2257568.6941249985,1569.4276250000112,False,124,mc.png,monaco,0.3
368,2263845.3998330007,1245.5696670003235,True,205,vn.png,vietnam,0.3
369,2268629.2979169996,1849.6076660011895,True,13,ba.png,bosnia and herzegovina,0.20078125
370,2277915.906041999,1661.7925000027753,True,81,gt.png,guatemala,0.3
371,2284928.934083,994.658042000141,True,117,lr.png,liberia,0.250390625
372,2289120.3059170004,1221.0989160011522,False,81,gt.png,guatemala,0.3
373,2298868.7380420016,878.5809999969788,True,137,mv.png,maldives,0.250390625
374,2303392.650999998,1227.6091250022873,True,14,bb.png,barbados,0.20078125
375,2308528.9947080016,2356.0829169983044,False,124,mc.png,monaco,0.349609375
376,2315690.41625,977.2675000019372,True,205,vn.png,vietnam,0.250390625
377,2320141.6651670006,1003.9902499993332,True,122,ly.png,libya,0.20078125
378,2326144.2067919997,1338.3620829991996,True,208,xk.png,kosovo,0.3
379,2330968.867167001,1607.5677909976803,True,206,vu.png,vanuatu,0.3
380,2341078.9543749997,1065.2854580003768,True,208,xk.png,kosovo,0.3
381,2346684.046333001,1119.1188749978319,True,206,vu.png,vanuatu,0.3
382,2351638.468792,1279.4512080000713,True,81,gt.png,guatemala,0.250390625
383,2357761.068374999,1105.869833001867,False,124,mc.png,monaco,0.39921874999999996
384,2363149.3929169993,1033.5327499997802,True,102,ke.png,kenya,0.20078125
385,2367249.1555419983,1968.738166000694,True,18,bg.png,bulgaria,0.20312499999999997
386,2374025.457374999,1050.7877500024624,True,88,hu.png,hungary,0.20078125
387,2378944.739625,1213.4336669985205,True,85,hn.png,honduras,0.3
388,2385762.2336669993,1106.936457999982,True,124,mc.png,monaco,0.398828125
389,2390931.627582999,986.3707500007004,True,85,hn.png,honduras,0.3
390,2397300.5009580012,859.3871669978835,True,208,xk.png,kosovo,0.250390625
391,2401436.537166999,inf,True,206,vu.png,vanuatu,0.349609375
392,2415114.060625001,1222.5613329974003,True,44,cy.png,cyprus,0.20078125
393,2420549.546208,1613.0716670015827,False,184,sz.png,eswatini,0.29999999999999993
394,2427098.2517919983,2495.6039580027573,True,31,cd.png,democratic republic of the congo,0.3
395,2440931.6261249986,853.71812500339,True,85,hn.png,honduras,0.250390625
396,2445768.4104580004,1054.760709001217,True,31,cd.png,democratic republic of the congo,0.3
397,2458117.039249999,2988.90037499927,True,206,vu.png,vanuatu,0.39374999999999993
398,2465192.6272499985,1356.163458000403,True,124,mc.png,monaco,0.3984375
399,2469795.030707999,1789.6407920015045,True,158,ps.png,palestine,0.16914062499999996
400,2475039.400458001,1316.3654589988291,True,74,gh.png,ghana,0.175390625
401,2479146.4027500004,3213.955499999691,True,70,gd.png,grenada,0.36210937499999984
402,2490081.191917001,9711.791290999856,True,206,vu.png,vanuatu,0.418359375
403,2504240.9944169996,1780.7080000019632,True,31,cd.png,democratic republic of the congo,0.250390625
404,2514766.4277080004,1292.2052089995705,True,189,tl.png,timor leste,0.20078125
405,2520741.4839999983,864.7779170023277,True,171,se.png,sweden,0.20078125
406,2526964.2624580013,1051.9632499995641,True,192,to.png,tonga,0.2500000000000001
407,2531549.7855829997,2866.2326670018956,True,184,sz.png,eswatini,0.324609375
408,2539705.1440830003,1493.7366669978946,True,206,vu.png,vanuatu,0.39374999999999993
409,2545248.7108749994,908.9589169998653,True,63,fr.png,france,0.20078125
410,2549195.0785000008,1114.6489169988781,True,124,mc.png,monaco,0.34882812500000004
411,2554913.433333,1198.1427089995705,True,9,at.png,austria,0.20078125
412,2560390.4172500004,2017.982207999099,True,3,ag.png,antigua and barbuda,0.28671875
413,2573222.146958,2099.0475840005092,True,70,gd.png,grenada,0.3374999999999998
414,2578980.5753750005,3180.400249999482,False,203,vc.png,saint vincent and the grenadines,0.3
415,2591275.603667,1327.3904999988154,True,115,li.png,liechtenstein,0.3
416,2601098.6010000017,1358.1715419967659,True,203,vc.png,saint vincent and the grenadines,0.3
417,2610337.0475000013,7521.882958000526,False,115,li.png,liechtenstein,0.3
418,2620249.655042,1339.0925409984775,True,117,lr.png,liberia,0.20078125
419,2625031.267167,960.4787499993108,True,137,mv.png,maldives,0.20078125
420,2630104.6863750014,1402.0604580002837,True,100,jo.png,jordan,0.3
421,2635859.1310830014,1601.421291998122,False,111,kz.png,kazakhstan,0.3
422,2643058.0196670014,3392.9107909975573,True,100,jo.png,jordan,0.3
423,2649634.9758329997,978.9286250015721,True,111,kz.png,kazakhstan,0.3
424,2659586.9082919997,1592.8172079985961,True,206,vu.png,vanuatu,0.39179687499999993
425,2666500.376625001,1366.1459169997834,True,203,vc.png,saint vincent and the grenadines,0.250390625
426,2677123.781792001,1014.4833749984391,True,115,li.png,liechtenstein,0.250390625
427,2683202.5361250015,1507.5369999976829,True,184,sz.png,eswatini,0.32421875
428,2689744.8961670017,inf,True,205,vn.png,vietnam,0.29999999999999993
429,2695473.6412919993,1429.063625000883,True,100,jo.png,jordan,0.250390625
430,2700055.522208,1139.3669169992208,True,81,gt.png,guatemala,0.20078125
431,2706442.2584579987,1181.3863750030287,True,111,kz.png,kazakhstan,0.250390625
432,2713647.0485829995,1420.4916250021197,True,141,mz.png,mozambique,0.3
433,2721729.3572499985,1506.0188330025412,True,114,lc.png,saint lucia,0.3
434,2728073.791625,1016.4297920018435,True,141,mz.png,mozambique,0.3
435,2734216.788292,534.0938750016503,True,114,lc.png,saint lucia,0.3
436,2738611.7500830004,1023.254125000909,True,208,xk.png,kosovo,0.20078125
437,2743083.877375,1041.9711670000106,True,61,fm.png,micronesia,0.3
438,2749393.7995000016,1230.9704169998877,True,1,ae.png,united arab emirates,0.3
439,2757321.7115000007,914.8400829979219,True,61,fm.png,micronesia,0.3
440,2762433.6021249983,611.6769580002874,True,1,ae.png,united arab emirates,0.3
441,2771447.3059580014,1643.9167919997126,True,206,vu.png,vanuatu,0.3421875
442,2776629.568167002,1283.2877909964882,True,85,hn.png,honduras,0.20078125
443,2782293.627957999,933.4422089997679,True,141,mz.png,mozambique,0.250390625
444,2788522.987417,1162.9744160016999,True,114,lc.png,saint lucia,0.250390625
445,2793802.0864999997,1151.745499999728,True,205,vn.png,vietnam,0.250390625
446,2798240.4760419996,1179.2477080016397,True,159,pt.png,portugal,0.2007812500000001
447,2803023.7992080003,2304.802250000648,True,59,fi.png,finland,0.3203125
448,2808653.7557500014,inf,True,61,fm.png,micronesia,0.349609375
449,2817316.959083,1232.217333999928,True,1,ae.png,united arab emirates,0.250390625
450,2826234.5648750016,1349.6695419996977,True,188,tj.png,tajikistan,0.156640625
451,2833407.9248749986,1262.9197080023587,True,154,pg.png,papua new guinea,0.3
452,2843536.4112079986,1371.4498340017162,True,27,bw.png,botswana,0.3
453,2848807.6733749984,1922.9247080003843,False,154,pg.png,papua new guinea,0.3
454,2856981.588667,1028.8850830001757,True,27,bw.png,botswana,0.3
455,2862170.553625001,1360.8536249995232,True,61,fm.png,micronesia,0.30000000000000004
456,2868566.7690420016,1106.4752079979517,True,124,mc.png,monaco,0.2992187500000001
457,2873394.522999999,1735.5435000024736,True,31,cd.png,democratic republic of the congo,0.20078125
458,2884899.5417080005,892.4143340010196,True,135,mt.png,malta,0.2007812500000001
459,2888948.3926249994,1127.5024579991587,True,5,am.png,armenia,0.3
460,2893958.4930419987,1777.2192910015583,True,43,cv.png,cabo verde,0.3
461,2902777.2401250005,3634.687292000279,True,5,am.png,armenia,0.3
462,2912173.5508329985,inf,True,43,cv.png,cabo verde,0.3
463,2919606.2106669997,1166.4874160015024,True,154,pg.png,papua new guinea,0.250390625
464,2927242.947499999,858.5312920007855,True,27,bw.png,botswana,0.250390625
465,2932888.0011670007,1325.2070409981534,True,184,sz.png,eswatini,0.27460937500000004
466,2942073.7216669987,1450.2805830016732,True,22,bn.png,brunei,0.15117187499999998
467,2947262.2878330005,1250.7304999995977,True,67,gb-nir.png,northern ireland,0.15117187499999998
468,2954407.755625001,881.135332998354,True,5,am.png,armenia,0.250390625
469,2959169.2621670007,1110.3553750002757,True,182,sv.png,el salvador,0.3
470,2967490.2935419995,1379.238041001372,True,43,cv.png,cabo verde,0.250390625
471,2975779.9163749986,3432.4906670008786,True,182,sv.png,el salvador,0.3
472,2984278.0205000015,2106.4647499988787,True,179,sr.png,suriname,0.3
473,2991004.2400829988,1543.890709002968,True,82,gw.png,guinea bissau,0.3
474,2998634.6760829985,1826.230250000488,False,179,sr.png,suriname,0.3
475,3005668.490417,1095.1013330011629,True,82,gw.png,guinea bissau,0.3
476,3012718.139042001,1476.50099999737,True,60,fj.png,fiji,0.20078125
477,3017355.3505829987,1422.1646250006743,True,32,cf.png,central african republic,0.3
478,3027587.079000001,973.1833749972284,True,182,sv.png,el salvador,0.250390625
479,3033009.0089170006,949.2143329991959,True,32,cf.png,central african republic,0.3
480,3041605.143375,1364.8437080010772,True,100,jo.png,jordan,0.20078125
481,3046480.508249999,1585.3782080011442,False,203,vc.png,saint vincent and the grenadines,0.25078124999999996
482,3074054.074874999,1519.5161670017987,True,179,sr.png,suriname,0.250390625
483,3081665.3541669985,1293.020583001431,True,82,gw.png,guinea bissau,0.250390625
484,3088520.628917002,1089.5723749995232,False,115,li.png,liechtenstein,0.29999999999999993
485,3096061.249208,1235.7439590012655,True,32,cf.png,central african republic,0.250390625
486,3106745.6137080006,1756.1450840001926,True,111,kz.png,kazakhstan,0.20078125
487,3115816.869292001,982.7724159988575,True,61,fm.png,micronesia,0.2503906250000001
488,3121299.277875001,1096.1045419974253,True,198,ua.png,ukraine,0.15117187499999998
489,3125684.704542,2214.5003750012256,True,17,bf.png,burkina faso,0.3269531250000002
490,3133025.974917,1262.18920799857,True,114,lc.png,saint lucia,0.20078125
491,3138935.3834579997,1359.6732090008445,True,141,mz.png,mozambique,0.20078125
492,3148098.9962919992,2208.647666000761,True,193,tr.png,turkey,0.15117187499999998
493,3156629.203749999,1298.2230830020271,True,183,sy.png,syria,0.15117187499999998
494,3161167.3025829988,1170.9477090006694,True,1,ae.png,united arab emirates,0.20078125
495,3169337.695708,1041.6089169993065,True,89,id.png,indonesia,0.15117187499999998
496,3174635.342792,902.8140410012566,True,143,ne.png,niger,0.15117187499999998
497,3179091.5611249986,1016.3136670016684,True,121,lv.png,latvia,0.15117187499999998
498,3183300.0075000017,925.7966669974849,True,115,li.png,liechtenstein,0.29960937499999996
499,3189391.9872080004,1817.717041998636,True,96,is.png,iceland,0.15117187499999998
500,3194920.3076669984,1150.2767910021357,True,42,cu.png,cuba,0.3
501,3199055.2821249985,2140.207750002388,True,173,si.png,slovenia,0.169921875
502,3207316.014291999,3548.223208002746,True,42,cu.png,cuba,0.3
503,3214416.1147919986,1504.1279160031117,True,70,gd.png,grenada,0.29726562499999987
504,3221386.139582999,1512.8236250020564,True,195,tv.png,tuvalu,0.15117187499999998
505,3227394.3732920014,1587.4796659993008,True,206,vu.png,vanuatu,0.292578125
506,3233251.8090830017,1299.9208749970421,True,21,bj.png,benin,0.3
507,3238660.6393330004,1356.9397919997573,True,3,ag.png,antigua and barbuda,0.28632812500000004
508,3246668.5039170007,763.9498329991475,True,21,bj.png,benin,0.3
509,3251192.6881250003,1647.643707998097,True,174,sk.png,slovakia,0.15117187499999998
510,3257771.312707999,1433.9146250020713,True,42,cu.png,cuba,0.250390625
511,3261974.933792,1128.2557499981485,True,112,la.png,laos,0.3
512,3267076.3616250004,1005.619708001148,True,27,bw.png,botswana,0.20078125
513,3272553.762374999,936.1752920011058,True,112,la.png,laos,0.3
514,3276651.0068749995,1751.7641670019366,True,154,pg.png,papua new guinea,0.20078125
515,3284507.654958001,1365.9793749973178,True,86,hr.png,croatia,0.15117187499999998
516,3289466.4457920007,1266.0770410001278,True,5,am.png,armenia,0.20078125
517,3294910.7745000003,inf,True,15,bd.png,bangladesh,0.3
518,3303555.9829580016,1274.187084000092,True,21,bj.png,benin,0.250390625
519,3307835.9468749985,674.424083001446,True,15,bd.png,bangladesh,0.3
520,3313768.8805,1614.0764580010436,True,62,fo.png,faroe islands,0.15117187499999998
521,3320218.8830830017,1369.0169589975849,False,43,cv.png,cabo verde,0.29999999999999993
522,3326672.5842500017,1011.181291996967,True,112,la.png,laos,0.250390625
523,3331785.4837919986,3019.2493750001304,True,180,ss.png,south sudan,0.201171875
524,3339647.9905000012,1163.5066669988446,True,34,ch.png,switzerland,0.3
525,3346673.211207999,1240.2219590004534,True,130,mm.png,myanmar,0.15117187499999998
526,3353291.5887499982,950.564292001538,False,34,ch.png,switzerland,0.3
527,3358591.2776250006,1015.7622919981368,True,15,bd.png,bangladesh,0.250390625
528,3365023.656833,2953.1956249992363,True,197,tz.png,tanzania,0.3
529,3373058.0382920015,1100.431415998377,True,182,sv.png,el salvador,0.20078125
530,3378800.303917,1046.2828330015764,True,197,tz.png,tanzania,0.3
531,3383941.2744580004,1207.3275000001304,True,148,np.png,nepal,0.3
532,3388659.5631249985,873.8045830032788,True,150,nz.png,new zealand,0.3
533,3394627.7829169994,896.4238330009393,True,148,np.png,nepal,0.3
534,3398501.4074169993,666.62537500076,True,150,nz.png,new zealand,0.3
535,3404711.3557500015,1049.792082998436,True,34,ch.png,switzerland,0.250390625
536,3411283.2079580002,1397.7856669989415,True,25,bs.png,bahamas,0.15117187499999998
537,3421558.3329580002,1601.3839590013959,True,43,cv.png,cabo verde,0.29960937499999996
538,3428310.1796670016,1548.4442909983918,True,179,sr.png,suriname,0.20078125
539,3433782.7152499994,1737.760042000562,True,197,tz.png,tanzania,0.250390625
540,3440529.319166999,2639.1344580007717,True,82,gw.png,guinea bissau,0.25078124999999996
541,3449058.4740000013,859.884582998231,True,148,np.png,nepal,0.250390625
542,3453005.036333001,1558.1114589986391,True,150,nz.png,new zealand,0.250390625
543,3458783.061958002,1080.124749998562,True,32,cf.png,central african republic,0.20078125
544,3467730.4847500017,1013.5176249970682,True,115,li.png,liechtenstein,0.24999999999999997
545,3474757.9425420007,2146.174707999453,False,64,ga.png,gabon,0.201171875
546,3481021.237875,2850.251083000563,True,53,ee.png,estonia,0.23085937499999995
547,3487176.759667,1082.6581250000745,True,165,ru.png,russia,0.15117187499999998
548,3492620.922582999,1443.4103340026923,True,167,sa.png,saudi arabia,0.3
549,3499614.247207999,1421.0029170024209,True,132,mo.png,macao,0.3
550,3507505.9733749987,1193.0696670021862,True,167,sa.png,saudi arabia,0.3
551,3512866.785958002,1260.9337089997716,True,132,mo.png,macao,0.3
552,3517318.9732499993,1147.9022919996642,True,38,cm.png,cameroon,0.3
553,3523435.3897080002,1181.295875001233,True,190,tm.png,turkmenistan,0.15117187499999998
554,3532504.3524169996,1355.0772910020314,True,38,cm.png,cameroon,0.3
555,3538207.636250001,1016.8485420001671,True,57,es.png,spain,0.3
556,3542564.8819169984,1953.262041002512,True,204,ve.png,venezuela,0.3
557,3551585.39575,855.5379579993896,True,57,es.png,spain,0.3
558,3556211.424000001,839.5098330001347,True,204,ve.png,venezuela,0.3
559,3562294.8182079997,872.9833750007674,True,167,sa.png,saudi arabia,0.250390625
560,3567600.473041999,891.1717080008239,True,132,mo.png,macao,0.250390625
561,3571754.259333,953.2177090002224,True,92,im.png,isle of man,0.15117187499999998
562,3576662.5314170015,1450.8816659981385,True,176,sm.png,san marino,0.3
563,3585037.4196250015,1070.9437499972992,True,38,cm.png,cameroon,0.250390625
564,3589594.005833002,1095.1722089992836,True,176,sm.png,san marino,0.3
565,3594762.8283330016,1295.1279999976978,True,42,cu.png,cuba,0.20078125
566,3598913.0977079985,1077.867667001672,True,203,vc.png,saint vincent and the grenadines,0.20117187499999997
567,3608533.559416999,968.0547499991953,True,57,es.png,spain,0.250390625
568,3612416.138249999,1185.4446670003235,True,204,ve.png,venezuela,0.250390625
569,3618668.3587920014,1252.201957999263,True,16,be.png,belgium,0.15117187499999998
570,3623946.2611669987,1081.2216660017148,True,128,mk.png,north macedonia,0.15117187499999998
571,3631361.620208001,906.6188750001602,True,69,gb-wls.png,wales,0.15117187499999998
572,3635095.6168330014,1057.56733399909,True,68,gb-sct.png,scotland,0.3
573,3639564.343333001,inf,True,176,sm.png,san marino,0.349609375
574,3645661.5157500017,862.3386669973843,True,68,gb-sct.png,scotland,0.3
575,3649943.9663330014,2059.0864169970155,True,21,bj.png,benin,0.20078125
576,3654983.239000001,928.7785829985514,True,112,la.png,laos,0.20078125
577,3659707.2827500016,1340.6989579997025,True,196,tw.png,taiwan,0.15117187499999998
578,3664656.4649579995,1312.260334001854,True,59,fi.png,finland,0.30742187499999996
579,3959998.9673329983,1197.4768330003135,True,176,sm.png,san marino,0.30000000000000004
580,3965518.021541,963.2924170000479,True,68,gb-sct.png,scotland,0.250390625
581,3970424.0323330015,1082.0498329992406,True,15,bd.png,bangladesh,0.20078125
582,3979521.9256249983,1867.3585830004886,True,43,cv.png,cabo verde,0.24999999999999997
583,3986508.4848330007,1016.5793329980224,True,34,ch.png,switzerland,0.20078125
584,3992061.217333001,1843.3447499992326,True,150,nz.png,new zealand,0.20078125
585,3999200.9024159997,1127.393999999389,True,148,np.png,nepal,0.20078125
586,4003373.133583002,2048.8485829988495,True,197,tz.png,tanzania,0.20078125
587,4009203.0287909983,1084.6872920012102,True,132,mo.png,macao,0.20078125
588,4013764.681875,1059.069082999602,True,167,sa.png,saudi arabia,0.20078125
589,4020131.1037910017,1042.4151249974966,True,38,cm.png,cameroon,0.20078125
590,4024654.8540830007,964.6840829993598,True,57,es.png,spain,0.20078125
591,4028765.1484160013,1064.2091249977238,True,204,ve.png,venezuela,0.20078125
592,4036697.4424159997,1177.8115420020185,True,205,vn.png,vietnam,0.20078125
593,4042645.2078330005,1227.861082999967,True,124,mc.png,monaco,0.2496093750000001
594,4047907.786291002,2977.972124997992,True,17,bf.png,burkina faso,0.32734375000000016
595,4055489.5206250004,1409.218915999867,True,82,gw.png,guinea bissau,0.20117187499999997
596,4062399.2532500015,938.2831249968149,True,169,sc.png,seychelles,0.15117187499999998
597,4067482.088749999,1293.3030830025673,True,10,au.png,australia,0.15117187499999998
598,4073459.0018330016,1965.5542919975705,True,125,md.png,moldova,0.161328125
599,4081889.000333002,2351.832249998115,True,77,gm.png,gambia,0.169921875
600,4088293.602416001,1152.0930000008084,True,194,tt.png,trinidad and tobago,0.15117187499999998
601,4096982.962416001,923.3487919992767,True,152,pa.png,panama,0.15117187499999998
602,4103230.746207999,3685.325166999828,True,134,mr.png,mauritania,0.275
603,4111012.148124999,1171.8455830016173,True,210,za.png,south africa,0.15117187499999998
604,4117381.007125001,1072.8280830006115,True,6,ao.png,angola,0.15117187499999998
605,4121850.3229160015,990.4929589973763,True,118,ls.png,lesotho,0.15117187499999998
606,4127322.681207999,1155.9420420019887,True,176,sm.png,san marino,0.2503906250000001
607,4132390.4429579997,1128.1290830010548,True,119,lt.png,lithuania,0.15117187499999998
608,4137284.1927080005,2733.619750001002,True,156,pk.png,pakistan,0.21132812499999998
609,4143620.4265000015,inf,False,3,ag.png,antigua and barbuda,0.3148437500000001
610,4154984.5735829985,1380.7043330017477,True,19,bh.png,bahrain,0.15117187499999998
611,4159593.5817499994,1029.8046659990214,True,187,th.png,thailand,0.3
612,4164645.1711250013,1117.1289579975419,True,48,dk.png,denmark,0.3
613,4169326.586291001,984.626292000059,True,187,th.png,thailand,0.3
614,4176018.8696250007,81.88449999922886,True,48,dk.png,denmark,0.3
615,4180156.374416001,1230.6194589985535,True,192,to.png,tonga,0.20039062500000013
616,4184713.5208750004,1461.4240000010468,True,0,ad.png,andorra,0.15117187499999998
617,4191148.2192910006,1931.5859169983305,True,110,kw.png,kuwait,0.3
618,4196687.391791002,2646.0870419973508,True,133,mq.png,martinique,0.3
619,4206156.890791001,1645.4231669995934,True,110,kw.png,kuwait,0.3
620,4210906.134583001,571.150207998231,True,133,mq.png,martinique,0.3
621,4216191.657915999,1416.4537089997903,True,134,mr.png,mauritania,0.22539062500000004
622,4222062.692040999,925.2398339994252,True,187,th.png,thailand,0.250390625
623,4226959.976666,922.9222499998286,True,48,dk.png,denmark,0.250390625
624,4231595.361250002,947.5042079975829,True,61,fm.png,micronesia,0.2007812500000001
625,4236480.352499999,1278.3842500029132,True,153,pe.png,peru,0.15117187499999998
626,4240699.445040998,1221.2764590010047,True,51,dz.png,algeria,0.3
627,4245827.426790998,1187.1910840021446,True,11,aw.png,aruba,0.3
628,4250442.237625,4703.002457998693,True,51,dz.png,algeria,0.3
629,4258457.033125,inf,False,11,aw.png,aruba,0.3

