trial,start_time,rt,correct,fact_id,question,answer,alpha
1,4592.95839999686,1418.4720999910496,True,103,kh.png,cambodia,0.3
2,8918.16839997773,834.2198000173084,True,103,kh.png,cambodia,0.3
3,12733.110799978022,1198.9477000024635,True,33,ch.png,switzerland,0.3
4,18644.155699992552,1008.0864999908954,True,33,ch.png,switzerland,0.3
5,24315.173899987713,1058.7336999888066,True,184,td.png,chad,0.3
6,27384.09639999736,1234.965599986026,True,6,aq.png,antarctica,0.3
7,32225.232299999334,883.7593999924138,True,184,td.png,chad,0.3
8,34991.45179998595,1067.21340000513,True,6,aq.png,antarctica,0.3
9,39503.33499998669,1171.9515000004321,True,197,ua.png,ukraine,0.3
10,43377.2221999825,1335.0803000212181,True,113,lc.png,saint lucia,0.3
11,48104.137199989054,1026.0172999987844,True,197,ua.png,ukraine,0.3
12,51913.09999997611,1005.3837000159547,True,113,lc.png,saint lucia,0.3
13,56325.83619997604,1012.265200028196,True,103,kh.png,cambodia,0.250390625
14,60198.414199985564,1551.3626000029035,True,114,li.png,liechtenstein,0.3
15,67189.40279999515,1091.7973000032362,True,33,ch.png,switzerland,0.250390625
16,72841.63509999053,1031.1685999913607,True,114,li.png,liechtenstein,0.3
17,79930.61829998624,3644.0268000005744,True,184,td.png,chad,0.349609375
18,85473.94939998048,906.1948000162374,True,6,aq.png,antarctica,0.250390625
19,89834.73740000045,2316.2284999853,True,12,ba.png,bosnia and herzegovina,0.3
20,101390.49989997875,956.5379999985453,True,197,ua.png,ukraine,0.250390625
21,105052.39519997849,1062.443800008623,True,12,ba.png,bosnia and herzegovina,0.3
22,113365.96809999901,1162.2055000043474,True,113,lc.png,saint lucia,0.250390625
23,117823.6528999987,1800.0644999847282,True,102,kg.png,kyrgyzstan,0.3
24,127048.16669999855,946.0827999864705,True,184,td.png,chad,0.30000000000000004
25,129890.63459998579,994.1090999927837,True,102,kg.png,kyrgyzstan,0.3
26,136699.60639998317,1095.3024000045843,True,114,li.png,liechtenstein,0.250390625
27,142499.21049998375,1249.7275000205263,True,8,at.png,austria,0.3
28,146218.44789999886,1095.63419999904,True,126,mg.png,madagascar,0.3
29,150973.2116999803,1154.597900022054,True,8,at.png,austria,0.3
30,154535.346699995,1261.442299990449,True,126,mg.png,madagascar,0.3
31,159718.9911000023,1155.5454999906942,True,12,ba.png,bosnia and herzegovina,0.250390625
32,168092.2431999934,1473.6770000017714,True,30,cd.png,drc,0.3
33,171295.0090999948,1234.9813999899197,True,83,hk.png,hong kong,0.3
34,175985.29489999055,1562.7161999873351,True,30,cd.png,drc,0.3
35,179256.2104999961,975.6683000014164,True,83,hk.png,hong kong,0.3
36,183911.08469999745,1030.1834999991115,True,102,kg.png,kyrgyzstan,0.250390625
37,189235.82889998215,1454.2306000075769,True,154,ph.png,philippines,0.3
38,194744.77079999633,1110.0304999854416,True,45,de.png,germany,0.3
39,198358.91709997668,990.5981000047177,True,154,ph.png,philippines,0.3
40,202967.22500000033,1033.9903999993112,True,45,de.png,germany,0.3
41,206442.0429999882,1082.3120000131894,True,8,at.png,austria,0.250390625
42,209985.1423999935,1163.2278999895789,True,126,mg.png,madagascar,0.250390625
43,214398.7352999975,1226.9598999992013,True,54,eh.png,western sahara,0.3
44,219648.7212999782,1267.6109000167344,True,168,sc.png,seychelles,0.3
45,224447.06740000402,1154.715299984673,True,54,eh.png,western sahara,0.3
46,229466.46269998746,1047.862500010524,True,168,sc.png,seychelles,0.3
47,233574.35409998288,1240.2483000187203,True,30,cd.png,drc,0.250390625
48,236522.14419998927,1127.19470000593,True,83,hk.png,hong kong,0.250390625
49,240640.08049998665,1267.3331999976654,True,7,ar.png,argentina,0.3
50,245134.1060999839,1155.6101000169292,True,154,ph.png,philippines,0.250390625
51,249745.32129999716,1019.5642999897245,True,7,ar.png,argentina,0.3
52,253909.72359999432,901.728800003184,True,45,de.png,germany,0.250390625
53,257255.47069997992,1029.29220002261,True,146,no.png,norway,0.3
54,260776.42329997616,1045.5350000120234,True,108,kr.png,south korea,0.3
55,265246.0815999948,1680.577599996468,True,146,no.png,norway,0.3
56,269718.7748999859,961.7750000033993,True,108,kr.png,south korea,0.3
57,274192.36729998374,1157.0593999931589,True,54,eh.png,western sahara,0.250390625
58,279387.51989998855,989.4222000148147,True,168,sc.png,seychelles,0.250390625
59,283484.91349999676,1282.4184999917634,True,141,na.png,namibia,0.3
60,287329.631999979,1508.728600019822,True,71,gf.png,french guiana,0.3
61,293981.5357000043,940.191399975447,True,141,na.png,namibia,0.3
62,297444.26009999006,1221.024500002386,True,71,gf.png,french guiana,0.3
63,302270.0276999967,1542.3639999935403,True,7,ar.png,argentina,0.250390625
64,306673.44919999596,1251.9984999962617,True,171,sg.png,singapore,0.3
65,310968.10309999273,1445.5631999881007,True,74,gi.png,gibraltar,0.3
66,316667.7032999869,948.5690000001341,True,171,sg.png,singapore,0.3
67,320672.8483999905,1127.5538000045344,False,74,gi.png,gibraltar,0.3
68,325927.6998999994,1061.2337999918964,True,146,no.png,norway,0.250390625
69,329496.4241999842,1120.6874000199605,True,108,kr.png,south korea,0.250390625
70,333986.87289998634,1274.4394000037573,True,103,kh.png,cambodia,0.20078125
71,337914.72829997656,1902.641799999401,True,60,fm.png,micronesia,0.3
72,343560.07089998457,1174.610499991104,True,141,na.png,namibia,0.250390625
73,347303.10499999905,1051.3070999877527,True,60,fm.png,micronesia,0.3
74,351650.688099995,1297.1552000090014,True,71,gf.png,french guiana,0.250390625
75,357463.1656999991,1109.5357000012882,True,184,td.png,chad,0.2503906250000001
76,360345.5067999894,1011.0291999881156,True,33,ch.png,switzerland,0.20078125
77,365579.5075999922,987.8746999893337,True,171,sg.png,singapore,0.250390625
78,369554.39009997644,894.2708000249695,True,74,gi.png,gibraltar,0.250390625
79,374638.00289999926,1275.5484999797773,True,14,bd.png,bangladesh,0.3
80,379152.7789999964,1081.310699984897,True,209,za.png,south africa,0.3
81,383951.4134999772,1067.935300001409,True,14,bd.png,bangladesh,0.3
82,388655.2912000043,829.8488000000361,True,209,za.png,south africa,0.3
83,393211.76579999155,1094.243200001074,True,6,aq.png,antarctica,0.20078125
84,397928.5917999805,1356.422000011662,True,60,fm.png,micronesia,0.250390625
85,402879.10869999905,1148.6032999819145,True,85,hr.png,croatia,0.3
86,406780.18569998676,1155.6518000143114,True,167,sb.png,solomon islands,0.3
87,412475.8141999773,2250.6187000253703,True,85,hr.png,croatia,0.3
88,418111.2126999942,1474.0648999868426,True,167,sb.png,solomon islands,0.3
89,423618.11619999935,1001.1986999888904,True,197,ua.png,ukraine,0.20078125
90,427060.4056000011,1159.0356999950018,True,113,lc.png,saint lucia,0.20078125
91,431566.62789999973,917.7215999807231,True,14,bd.png,bangladesh,0.250390625
92,435485.0778999971,1818.342099984875,True,53,eg.png,egypt,0.3
93,439676.4344999974,1150.3081999835558,True,209,za.png,south africa,0.250390625
94,444260.59259998146,1121.8559000117239,True,53,eg.png,egypt,0.3
95,453578.81229999475,1317.6995999820065,True,173,sk.png,slovakia,0.3
96,458011.1911999993,1743.7140999827534,True,137,mw.png,malawi,0.3
97,462316.06359998113,1121.2224000191782,True,173,sk.png,slovakia,0.3
98,465977.4416,784.5496999798343,True,137,mw.png,malawi,0.3
99,469176.97539998335,1337.9281999950763,True,85,hr.png,croatia,0.250390625
100,473048.7602999783,1340.206400025636,True,167,sb.png,solomon islands,0.250390625
101,478474.94169999845,1334.799699980067,True,114,li.png,liechtenstein,0.20078125
102,484452.08190000267,2007.6620999898296,True,153,pg.png,papua new guinea,0.3
103,493366.10489999293,1286.6209000058006,True,53,eg.png,egypt,0.250390625
104,497107.0363000035,960.7383999973536,True,153,pg.png,papua new guinea,0.3
105,502449.3275999848,1270.6216000078712,True,12,ba.png,bosnia and herzegovina,0.20078125
106,510801.6611999774,1124.6382000099402,True,173,sk.png,slovakia,0.250390625
107,515151.78629997536,1139.8534000036307,True,137,mw.png,malawi,0.250390625
108,518767.87529999274,1382.6991000096314,True,102,kg.png,kyrgyzstan,0.20078125
109,525830.4867999977,1066.4053999935277,True,8,at.png,austria,0.20078125
110,529678.0983999779,1477.0884000172373,True,126,mg.png,madagascar,0.20078125
111,534730.7618999912,1487.7738000068348,True,19,bi.png,burundi,0.3
112,539885.3953999933,1626.4725000073668,True,30,cd.png,drc,0.20078125
113,543446.8429999833,1368.9083000062965,True,19,bi.png,burundi,0.3
114,547505.4901999829,1192.7452000090852,True,153,pg.png,papua new guinea,0.250390625
115,553003.9523000014,1159.964399994351,True,83,hk.png,hong kong,0.20078125
116,557118.8610999961,1094.29119998822,True,154,ph.png,philippines,0.20078125
117,562689.9869999907,1066.8269000016153,True,45,de.png,germany,0.20078125
118,566153.5293999768,1314.7993000166025,True,196,tz.png,tanzania,0.3
119,570344.0697999904,1612.1456999971997,True,11,az.png,azerbaijan,0.3
120,576449.5047999953,1409.4337999995332,True,196,tz.png,tanzania,0.3
121,581375.4602999834,1157.0153000066057,True,11,az.png,azerbaijan,0.3
122,586036.1725999974,1252.917299978435,True,161,qa.png,qatar,0.3
123,589577.4742999929,1370.0582000019494,True,54,eh.png,western sahara,0.20078125
124,595414.7143999871,1142.256199993426,True,161,qa.png,qatar,0.3
125,598593.3535999793,1204.4428000226617,True,19,bi.png,burundi,0.250390625
126,602519.9408999761,1045.7788000057917,True,168,sc.png,seychelles,0.20078125
127,606781.1750999826,1301.4107000199147,True,104,ki.png,kiribati,0.3
128,611205.9377999976,1431.4944999932777,True,7,ar.png,argentina,0.20078125
129,615676.94569999,1075.891499989666,True,104,ki.png,kiribati,0.3
130,620840.6534999958,1422.1190999960527,True,115,lk.png,sri lanka,0.3
131,625334.1423999809,1085.8395000104792,True,196,tz.png,tanzania,0.250390625
132,629567.3278000031,1207.967299997108,True,115,lk.png,sri lanka,0.3
133,633602.667899977,1030.2909000020009,True,11,az.png,azerbaijan,0.250390625
134,638189.3411999918,1083.2599999848753,True,146,no.png,norway,0.20078125
135,641749.9071999919,1081.0566000000108,True,108,kr.png,south korea,0.20078125
136,646099.0638999792,1079.816600016784,True,161,qa.png,qatar,0.250390625
137,649211.4197999763,1338.5782000259496,True,47,dk.png,denmark,0.3
138,653245.8138999937,1182.233700004872,True,158,pt.png,portugal,0.3
139,661258.4437000041,1803.638499986846,True,47,dk.png,denmark,0.3
140,666672.7967000043,6049.575199984247,True,158,pt.png,portugal,0.3
141,678390.9909999929,986.2057999998797,True,104,ki.png,kiribati,0.250390625
142,682176.6377000022,1217.4669999803882,True,115,lk.png,sri lanka,0.250390625
143,688918.5394999804,1987.9479000228457,True,141,na.png,namibia,0.20078125
144,694744.4286999817,1890.5236000136938,False,71,gf.png,french guiana,0.29999999999999993
145,700269.7240999842,3714.5344000018667,True,171,sg.png,singapore,0.29999999999999993
146,706995.9678000014,1445.680299977539,True,74,gi.png,gibraltar,0.20078125
147,712496.5346999816,2071.189400012372,True,47,dk.png,denmark,0.25898437500000004
148,717626.7558999825,983.7090999935754,True,158,pt.png,portugal,0.250390625
149,721871.8794999877,1780.8301000040956,True,60,fm.png,micronesia,0.20078125
150,726678.6656999902,1298.9977000106592,True,73,gh.png,ghana,0.3
151,729856.1257999972,1927.9014999920037,True,160,py.png,paraguay,0.3
152,736004.1299999866,1190.4924999980722,True,73,gh.png,ghana,0.3
153,739021.6787999962,945.9855000022799,True,160,py.png,paraguay,0.3
154,742771.8021000037,1041.7661999817938,True,14,bd.png,bangladesh,0.20078125
155,746723.2135999948,1112.8221999970265,True,138,mx.png,mexico,0.3
156,750434.2447999807,1176.91979999654,True,209,za.png,south africa,0.20078125
157,755375.1356999855,1278.8042000029236,True,138,mx.png,mexico,0.3
158,759538.4976999776,1029.810100008035,True,3,al.png,albania,0.3
159,763169.5060999773,1457.5396000000183,True,50,dz.png,algeria,0.3
160,767182.5955999957,1104.0426999970805,True,3,al.png,albania,0.3
161,772068.8291999977,5206.701899995096,True,50,dz.png,algeria,0.3
162,779683.2429999777,1147.2273000108544,True,135,mu.png,mauritius,0.3
163,784698.0139999941,1231.4866000087932,True,73,gh.png,ghana,0.250390625
164,787808.1563999876,1266.0634999920148,True,135,mu.png,mauritius,0.3
165,792214.024099987,1183.7759999907576,True,160,py.png,paraguay,0.250390625
166,796861.5199999767,1416.0771000024397,True,71,gf.png,french guiana,0.250390625
167,803402.9473999981,1004.0958999888971,True,171,sg.png,singapore,0.250390625
168,807481.9145999791,1034.2794000171125,True,138,mx.png,mexico,0.250390625
169,811345.9994999866,1340.5148000165354,True,85,hr.png,croatia,0.20078125
170,815153.8174999878,1421.6514000145253,True,167,sb.png,solomon islands,0.20078125
171,820398.7746999774,1194.8055000102613,True,3,al.png,albania,0.250390625
172,823825.7874999836,1720.4275999974925,True,50,dz.png,algeria,0.250390625
173,827940.952999983,1310.777800012147,True,53,eg.png,egypt,0.20078125
174,832378.9111999795,1335.0911000161432,True,137,mw.png,malawi,0.20078125
175,836457.6424999977,1065.815299982205,True,173,sk.png,slovakia,0.20078125
176,840191.385299986,1152.3533000145108,True,135,mu.png,mauritius,0.250390625
177,844849.8078999983,1283.080199995311,True,116,lr.png,liberia,0.3
178,848655.6695000036,1210.6095999770332,True,131,mo.png,macao,0.3
179,852615.4527000035,1108.8604999822564,True,116,lr.png,liberia,0.3
180,856288.3881999878,736.1310000123922,True,131,mo.png,macao,0.3
181,859119.3742000032,1183.7245999777224,True,15,be.png,belgium,0.3
182,863162.4225999985,1063.0796999903396,True,112,lb.png,lebanon,0.3
183,866754.0206999984,961.695999983931,True,15,be.png,belgium,0.3
184,870622.2637000028,792.5798999785911,True,112,lb.png,lebanon,0.3
185,873963.2010999776,1072.2385000262875,True,153,pg.png,papua new guinea,0.20078125
186,879554.8765999847,1287.7996000170242,True,206,ws.png,samoa,0.3
187,882728.9641999814,1723.4705000009853,True,42,cv.png,cabo verde,0.3
188,888634.5016999985,1024.386399978539,True,206,ws.png,samoa,0.3
189,891538.7126999849,1216.2391000019852,True,42,cv.png,cabo verde,0.3
190,895700.3778999788,1271.847700001672,True,145,nl.png,netherlands,0.3
191,900713.3627999865,1055.9631999931298,True,116,lr.png,liberia,0.250390625
192,904428.6998999887,1201.8418000079691,True,145,nl.png,netherlands,0.3
193,908534.5359999919,957.1976999868639,False,131,mo.png,macao,0.349609375
194,912115.0808999955,1336.1933999985922,True,19,bi.png,burundi,0.20078125
195,916181.7101999768,921.4128000021446,True,15,be.png,belgium,0.250390625
196,920036.0728999949,1080.045999988215,True,112,lb.png,lebanon,0.250390625
197,923624.5992999757,1002.6555000222288,True,96,it.png,italy,0.3
198,927725.8435999975,1298.1230999866966,True,61,fo.png,faroe islands,0.3
199,933033.439699997,947.7021000056993,False,96,it.png,italy,0.3
200,936256.4304999833,1328.421400015941,True,61,fo.png,faroe islands,0.3
201,941017.0590999769,1273.5509000194725,True,206,ws.png,samoa,0.250390625
202,944184.0270999819,1067.3023000126705,True,42,cv.png,cabo verde,0.250390625
203,948595.5789999862,1246.5240000165068,True,196,tz.png,tanzania,0.20078125
204,953177.3886999872,1142.7239000040572,True,131,mo.png,macao,0.30000000000000004
205,956507.993999985,943.3460000145715,True,145,nl.png,netherlands,0.250390625
206,962151.8773999996,2124.9308999977075,True,11,az.png,azerbaijan,0.2125
207,967932.0369999914,1220.4329000087455,True,161,qa.png,qatar,0.20078125
208,971308.4602000017,1299.8456999775954,True,13,bb.png,barbados,0.3
209,975280.1591999887,1116.4826999884099,True,90,il.png,israel,0.3
210,978865.3569000016,1001.5393999929074,True,13,bb.png,barbados,0.3
211,982767.1745999833,908.9068000030238,True,90,il.png,israel,0.3
212,986078.1030999788,1053.322699997807,True,96,it.png,italy,0.250390625
213,989348.0423000001,1020.8732000028249,True,61,fo.png,faroe islands,0.250390625
214,993611.4044999995,1806.4006999775302,True,47,dk.png,denmark,0.20937500000000006
215,997998.0159999977,1150.3946000011638,True,115,lk.png,sri lanka,0.20078125
216,1002035.9568999847,1163.309900002787,True,104,ki.png,kiribati,0.20078125
217,1006372.4846999976,1611.0301000007894,True,70,ge.png,georgia,0.3
218,1010916.5119999961,1128.0650999979116,True,76,gm.png,gambia,0.3
219,1014203.5036000016,1576.5322999795899,True,70,ge.png,georgia,0.3
220,1018371.5855999908,2026.9104999897536,True,76,gm.png,gambia,0.3
221,1022600.1130999939,1517.4783999973442,True,0,ae.png,united arab emirates,0.3
222,1031960.9667999903,951.6087000083644,True,13,bb.png,barbados,0.250390625
223,1035647.761500004,2363.8387999963015,True,0,ae.png,united arab emirates,0.3
224,1043197.6443000021,907.8217999776825,True,90,il.png,israel,0.250390625
225,1046798.2802999904,1012.850700004492,True,158,pt.png,portugal,0.20078125
226,1050715.168099996,2068.169599981047,True,48,dm.png,dominica,0.3
227,1055761.326799984,1130.9256000095047,True,5,ao.png,angola,0.3
228,1059088.9514999872,1076.4936000050511,True,48,dm.png,dominica,0.3
229,1064899.8409999767,1700.6790000014007,False,5,ao.png,angola,0.3
230,1068615.7817999774,1228.429300012067,True,70,ge.png,georgia,0.250390625
231,1072644.4476000033,1470.6821999861859,True,76,gm.png,gambia,0.250390625
232,1079404.334699997,1974.1652999946382,True,187,tj.png,tajikistan,0.3
233,1084983.3289999806,1410.1016000204254,True,0,ae.png,united arab emirates,0.250390625
234,1091772.344900004,2555.1434999797493,True,187,tj.png,tajikistan,0.3
235,1097706.3119999948,1581.3098000071477,True,73,gh.png,ghana,0.20078125
236,1101141.5470999782,1317.5980000232812,True,159,pw.png,palau,0.3
237,1105375.6311000034,1461.4833999949042,True,160,py.png,paraguay,0.20078125
238,1110457.4725999846,8620.245400001295,True,159,pw.png,palau,0.3
239,1121775.156299991,1442.292499996256,True,48,dm.png,dominica,0.250390625
240,1126080.7057999773,1156.7353999998886,True,5,ao.png,angola,0.250390625
241,1129391.665699979,1251.1553000076674,True,138,mx.png,mexico,0.20078125
242,1133416.372799984,1159.3374999938533,True,3,al.png,albania,0.20078125
243,1137035.223599989,1188.0627000064123,True,50,dz.png,algeria,0.20078125
244,1140589.8195999907,2029.7279999940656,True,187,tj.png,tajikistan,0.26289062500000004
245,1146198.5173999856,1471.3345000054687,True,135,mu.png,mauritius,0.20078125
246,1151301.651899994,1402.097699989099,True,24,bs.png,bahamas,0.3
247,1155972.0892999903,1301.6413000004832,True,195,tw.png,taiwan,0.3
248,1159678.532299993,1041.7603999958374,True,24,bs.png,bahamas,0.3
249,1163265.968199994,769.1950000007637,True,195,tw.png,taiwan,0.3
250,1166418.7412000028,1549.4219999818597,True,159,pw.png,palau,0.250390625
251,1169901.0861999996,1271.7679999768734,True,17,bg.png,bulgaria,0.3
252,1174062.1647999797,1096.9389000092633,True,185,tg.png,togo,0.3
253,1176981.4394999994,1148.5297000035644,True,17,bg.png,bulgaria,0.3
254,1181195.2197999926,985.6473999971058,True,185,tg.png,togo,0.3
255,1184074.7460999992,1267.6037999917753,True,131,mo.png,macao,0.2503906250000001
256,1187566.1385999992,1572.7942999801598,True,205,vu.png,vanuatu,0.3
257,1191725.1162999892,1494.247099995846,True,144,ni.png,nicaragua,0.3
258,1196384.935899987,1139.9843000108376,True,205,vu.png,vanuatu,0.3
259,1200192.0563000022,1060.7204999832902,True,144,ni.png,nicaragua,0.3
260,1204702.4387999845,1108.5079000040423,True,116,lr.png,liberia,0.20078125
261,1208314.0618999896,1630.5175999877974,True,24,bs.png,bahamas,0.250390625
262,1213779.7846999892,1348.4087999968324,True,195,tw.png,taiwan,0.250390625
263,1217401.3693000015,988.5422999795992,True,15,be.png,belgium,0.20078125
264,1221396.9234999968,1059.2577999923378,True,112,lb.png,lebanon,0.20078125
265,1225044.6847999992,982.6982999802567,True,17,bg.png,bulgaria,0.250390625
266,1229426.1421999836,1856.083899998339,True,185,tg.png,togo,0.250390625
267,1233118.5450999765,1186.7682000156492,True,52,ee.png,estonia,0.3
268,1236542.356799997,2029.50969999074,True,80,gt.png,guatemala,0.3
269,1241562.656299997,1068.2548999902792,True,52,ee.png,estonia,0.3
270,1244973.192299978,1701.5560000145342,True,80,gt.png,guatemala,0.3
271,1249424.7646000003,1154.4047999777831,True,205,vu.png,vanuatu,0.250390625
272,1252999.201300001,2574.5161999948323,True,144,ni.png,nicaragua,0.312109375
273,1258467.2316999931,1330.5700999917462,True,206,ws.png,samoa,0.20078125
274,1261664.2711999884,1340.3067000035662,True,42,cv.png,cabo verde,0.20078125
275,1265888.8035999844,1268.69369999622,True,145,nl.png,netherlands,0.20078125
276,1270369.0479999932,2008.8114000100177,True,202,vc.png,saint vincent and the grenadines,0.3
277,1279300.433700002,1123.9185000013094,True,142,ne.png,niger,0.3
278,1282396.5844999766,897.861000004923,True,202,vc.png,saint vincent and the grenadines,0.3
279,1290239.8320999928,924.325800006045,True,142,ne.png,niger,0.3
280,1293096.9048999832,1019.2466000153217,True,52,ee.png,estonia,0.250390625
281,1296437.2879999864,1415.4724999971222,True,80,gt.png,guatemala,0.250390625
282,1300620.8110000007,1345.9390999923926,True,61,fo.png,faroe islands,0.20078125
283,1305387.6906999794,1106.7241000127979,True,96,it.png,italy,0.20078125
284,1309051.3042999955,1154.9232999968808,True,152,pe.png,peru,0.3
285,1312540.7443000004,1331.4513999794144,True,31,cf.png,central african republic,0.3
286,1323554.7602000006,1031.8395999784116,False,152,pe.png,peru,0.3
287,1327971.0545999988,1144.6023999887984,True,31,cf.png,central african republic,0.3
288,1335768.9572999952,1141.7878000065684,True,202,vc.png,saint vincent and the grenadines,0.250390625
289,1344353.1243999896,1068.1749999930616,True,142,ne.png,niger,0.250390625
290,1347478.1214999966,2063.621499983128,True,144,ni.png,nicaragua,0.26875000000000004
291,1352780.592199997,1065.5604999919888,True,13,bb.png,barbados,0.20078125
292,1356624.5517999923,966.635499993572,True,90,il.png,israel,0.20078125
293,1359888.8659999939,1331.723499984946,True,20,bj.png,benin,0.3
294,1363984.5719999867,4483.6969999887515,True,184,td.png,chad,0.30000000000000004
295,1370229.7968999774,941.7739000055008,True,20,bj.png,benin,0.3
296,1373105.155199999,1128.4389999927953,True,70,ge.png,georgia,0.20078125
297,1376900.347399991,1474.234699999215,True,152,pe.png,peru,0.250390625
298,1381329.2908000003,1055.838500004029,True,31,cf.png,central african republic,0.250390625
299,1388535.1785999956,1501.093500002753,True,76,gm.png,gambia,0.20078125
300,1392107.0412999834,1512.3410999949556,True,187,tj.png,tajikistan,0.23750000000000004
301,1400495.6568999914,1787.6566000049934,True,59,fj.png,fiji,0.3
302,1405731.4077999908,1254.9133999855258,True,155,pk.png,pakistan,0.3
303,1409799.898199999,1584.6673999913037,True,59,fj.png,fiji,0.3
304,1413294.3359999917,853.8918000122067,True,155,pk.png,pakistan,0.3
305,1417034.2466000002,1434.1452999797184,True,0,ae.png,united arab emirates,0.20078125
306,1423472.505599988,1556.4867999928538,True,20,bj.png,benin,0.250390625
307,1426943.1341000018,1087.90919999592,True,62,fr.png,france,0.3
308,1430382.8060999804,1087.0032000239007,True,122,ma.png,morocco,0.3
309,1433980.1220999798,1002.1212999999989,True,62,fr.png,france,0.3
310,1437314.4084999803,1003.4209000004921,True,122,ma.png,morocco,0.3
311,1441069.931999984,2619.4109999923967,True,48,dm.png,dominica,0.25625
312,1446377.8140999784,982.9291000205558,True,5,ao.png,angola,0.20078125
313,1449777.8784999973,1136.370199994417,True,64,gb.png,uk,0.3
314,1452465.5253999808,1591.267300012987,True,189,tm.png,turkmenistan,0.3
315,1458237.0373999875,927.911300008418,True,64,gb.png,uk,0.3
316,1460692.4304999993,1156.3156999764033,True,189,tm.png,turkmenistan,0.3
317,1465657.6528000005,1457.984699984081,True,59,fj.png,fiji,0.250390625
318,1469373.6132999766,1116.7158000171185,True,155,pk.png,pakistan,0.250390625
319,1473237.8000000026,1182.3388999910094,True,184,td.png,chad,0.2503906250000001
320,1476426.4121000015,1229.0251999802422,True,38,cn.png,china,0.3
321,1479524.5054999832,1151.3390000036452,True,62,fr.png,france,0.250390625
322,1483010.6007999857,991.85540000326,True,38,cn.png,china,0.3
323,1485968.3349999832,986.8105000059586,True,122,ma.png,morocco,0.250390625
324,1489555.4706999974,1354.0085999993607,False,159,pw.png,palau,0.29999999999999993
325,1493296.7064999975,1747.3949999839533,True,106,kn.png,saint kitts and nevis,0.3
326,1500859.4178999774,1424.6802999987267,True,199,us.png,usa,0.3
327,1503838.1480999815,1180.7869000185747,True,106,kn.png,saint kitts and nevis,0.3
328,1510576.2055999949,988.1750000058673,True,199,us.png,usa,0.3
329,1513112.513,996.6380999831017,True,64,gb.png,uk,0.250390625
330,1515660.0406999933,1314.0321999962907,True,189,tm.png,turkmenistan,0.250390625
331,1521201.1151000042,1413.8881999824662,True,195,tw.png,taiwan,0.20078125
332,1525002.65889999,1288.5515000089072,True,24,bs.png,bahamas,0.20078125
333,1529020.6431999977,1953.4333999908995,True,17,bg.png,bulgaria,0.20078125
334,1534287.7430999943,1153.4186000062618,True,38,cn.png,china,0.250390625
335,1537362.7551999816,1982.9952000000048,True,185,tg.png,togo,0.20312499999999997
336,1541221.5234999894,1239.6322000131477,True,198,ug.png,uganda,0.3
337,1544823.2714999758,1329.6254000160843,True,182,sy.png,syria,0.3
338,1548486.0400999896,1076.5864000131842,True,198,ug.png,uganda,0.3
339,1552032.4483999866,784.9106999929063,True,182,sy.png,syria,0.3
340,1555042.9654000036,1193.44989999081,True,106,kn.png,saint kitts and nevis,0.250390625
341,1561810.169000004,1043.0218999972567,True,199,us.png,usa,0.250390625
342,1564418.580700003,1794.4270999869332,True,205,vu.png,vanuatu,0.20078125
343,1568730.8225999877,1593.7389000027906,True,179,ss.png,south sudan,0.3
344,1574066.644799983,1294.5889999973588,True,1,af.png,afghanistan,0.3
345,1579009.2611,1124.0488000039477,True,179,ss.png,south sudan,0.3
346,1583240.9807999793,813.3934000215959,True,1,af.png,afghanistan,0.3
347,1587382.7401000017,1120.7722999970429,True,159,pw.png,palau,0.29960937499999996
348,1590726.3246999937,1230.5411999986973,True,121,ly.png,libya,0.3
349,1595522.1728000033,1042.1238999988418,True,198,ug.png,uganda,0.250390625
350,1598922.8251999884,938.0423999973573,True,121,ly.png,libya,0.3
351,1601971.9427999808,1233.3473000035156,True,182,sy.png,syria,0.250390625
352,1606048.4235999756,1139.2911000002641,True,52,ee.png,estonia,0.20078125
353,1609818.2870000019,1705.1341999904253,True,80,gt.png,guatemala,0.20078125
354,1615924.495299987,1699.0316000010353,True,46,dj.png,djibouti,0.3
355,1621864.8214999994,1227.43649999029,True,94,ir.png,iran,0.3
356,1625089.925599983,1374.104200018337,True,46,dj.png,djibouti,0.3
357,1629624.6400999953,1018.748999980744,True,94,ir.png,iran,0.3
358,1632645.8829999901,1142.9735000128858,True,179,ss.png,south sudan,0.250390625
359,1637180.3523999988,1233.7504999886733,True,1,af.png,afghanistan,0.250390625
360,1641848.7748999905,2495.491100009531,True,201,uz.png,uzbekistan,0.3
361,1648651.294499985,3049.947899999097,True,121,ly.png,libya,0.349609375
362,1653722.865799995,1272.1361999865621,True,201,uz.png,uzbekistan,0.3
363,1658487.7123000042,1448.9470999978948,True,183,sz.png,eswatini,0.3
364,1663314.6463999874,1736.118600005284,True,202,vc.png,saint vincent and the grenadines,0.20078125
365,1672755.6856999872,1181.8339999881573,True,183,sz.png,eswatini,0.3
366,1676864.798399998,2215.2876000036485,True,46,dj.png,djibouti,0.27460937500000004
367,1682452.4569999776,1254.6474999981,True,94,ir.png,iran,0.250390625
368,1685759.1295999882,1038.8881000108086,True,142,ne.png,niger,0.20078125
369,1688816.4234999858,1276.3865000160877,True,87,hu.png,hungary,0.3
370,1693112.9969999893,2128.30959999701,True,121,ly.png,libya,0.32499999999999996
371,1697778.3084999828,6000.219900015509,True,87,hu.png,hungary,0.3
372,1707790.5713999935,1620.8000000042375,True,201,uz.png,uzbekistan,0.250390625
373,1713277.6648,1282.7163999900222,True,152,pe.png,peru,0.20078125
374,1716772.7127999824,1525.302299996838,True,211,zw.png,zimbabwe,0.3
375,1721308.563700004,1324.368899979163,True,31,cf.png,central african republic,0.20078125
376,1729576.50309999,1631.0261999897193,True,211,zw.png,zimbabwe,0.3
377,1734075.3270999994,1268.0257000029087,True,183,sz.png,eswatini,0.250390625
378,1738209.613599989,1471.1559000134002,True,129,mm.png,myanmar,0.3
379,1742901.1965999962,1811.2989999935962,True,20,bj.png,benin,0.20078125
380,1746659.1002999921,951.5318000048865,True,129,mm.png,myanmar,0.3
381,1750298.1407000043,1040.8563999808393,True,87,hu.png,hungary,0.250390625
382,1753988.3374999918,1686.752699984936,True,144,ni.png,nicaragua,0.21914062500000006
383,1758901.3409999898,1775.0991999928374,True,188,tl.png,timor leste,0.3
384,1764389.6470999753,1336.4321000117343,True,186,th.png,thailand,0.3
385,1768197.4881999777,inf,True,188,tl.png,timor leste,0.3
386,1773090.8891999861,895.1350999996066,True,186,th.png,thailand,0.3
387,1776487.6684999908,1044.3565000023227,True,62,fr.png,france,0.20078125
388,1779788.2393999898,1230.4563999932725,True,155,pk.png,pakistan,0.20078125
389,1783878.3399999957,1590.8064999966882,True,211,zw.png,zimbabwe,0.250390625
390,1788253.836799995,1022.1282999846153,True,122,ma.png,morocco,0.20078125
391,1791883.9457999857,1589.3285000056494,True,59,fj.png,fiji,0.20078125
392,1795370.1176999894,2911.0224999894854,True,129,mm.png,myanmar,0.349609375
393,1801375.1221999992,2717.9361000016797,True,149,nz.png,new zealand,0.3
394,1807756.994299998,1624.8849999974482,True,140,mz.png,mozambique,0.3
395,1813422.4578999856,1087.2704999928828,True,149,nz.png,new zealand,0.3
396,1817609.2104999989,697.4162999831606,True,140,mz.png,mozambique,0.3
397,1822283.5380999895,1902.5109999929555,True,188,tl.png,timor leste,0.250390625
398,1827198.2709000004,1053.9364999858662,True,186,th.png,thailand,0.250390625
399,1830672.2956000012,978.9894999994431,True,64,gb.png,uk,0.20078125
400,1833208.135599998,1834.1789999976754,True,189,tm.png,turkmenistan,0.20078125
401,1839328.6538999819,1046.4351999980863,True,121,ly.png,libya,0.29960937499999996
402,1842584.156099998,1099.1412999865133,True,129,mm.png,myanmar,0.30000000000000004
403,1846244.0630999918,1152.2876000090037,True,38,cn.png,china,0.20078125
404,1849292.1194999944,1353.5974999831524,True,171,sg.png,singapore,0.20078125
405,1853765.126399987,1170.020099991234,True,159,pw.png,palau,0.24999999999999997
406,1856827.0594999776,6178.454300010344,True,71,gf.png,french guiana,0.29999999999999993
407,1866650.4494999826,1143.7645000114571,True,149,nz.png,new zealand,0.250390625
408,1870919.460199977,1528.0575000215322,True,140,mz.png,mozambique,0.250390625
409,1877070.1367000001,2500.0277999788523,True,46,dj.png,djibouti,0.27265625000000004
410,1882521.3180999854,inf,True,48,dm.png,dominica,0.258203125
411,1889498.8747999887,2613.0347000143956,True,106,kn.png,saint kitts and nevis,0.25468749999999996
412,1897842.8692999878,1093.486900004791,True,199,us.png,usa,0.20078125
413,1900797.1201000037,1002.8974999731872,True,198,ug.png,uganda,0.20078125
414,1904072.5515999948,1712.8058999951463,True,182,sy.png,syria,0.20078125
415,1909063.6557999824,1381.0952000203542,True,163,rs.png,serbia,0.3
416,1912607.1605999896,1621.4931999857072,True,117,ls.png,lesotho,0.3
417,1916968.3831000002,1598.7884999776725,True,163,rs.png,serbia,0.3
418,1920732.3679999972,658.8042999792378,True,117,ls.png,lesotho,0.3
419,1924222.3465999996,1330.8720999921206,True,32,cg.png,congo,0.3
420,1927783.1651000015,1504.0344999870285,True,55,er.png,eritrea,0.3
421,1933071.9051999913,1095.228499994846,True,32,cg.png,congo,0.3
422,1936100.9757999855,888.1162000179756,True,55,er.png,eritrea,0.3
423,1940453.489699983,1277.8974999964703,True,56,es.png,spain,0.3
424,1943775.545099983,1184.0207000204828,True,84,hn.png,honduras,0.3
425,1949037.2135999787,999.4265999994241,False,56,es.png,spain,0.3
426,1952030.8886999846,971.4759000053164,True,84,hn.png,honduras,0.3
427,1956175.9270999755,1588.5492000088561,True,71,gf.png,french guiana,0.29960937499999996
428,1961481.2773999874,1034.925200016005,True,1,af.png,afghanistan,0.20078125
429,1965911.2581999798,1105.8386000222526,True,163,rs.png,serbia,0.250390625
430,1969178.4989000007,1432.1726999769453,True,179,ss.png,south sudan,0.20078125
431,1974010.0685999787,1085.4043000144884,True,117,ls.png,lesotho,0.250390625
432,1978041.330499982,1098.5587000031956,True,100,jp.png,japan,0.3
433,1981173.8309999928,1394.6566999948118,True,32,cg.png,congo,0.250390625
434,1984609.5409999834,976.9683000049554,True,100,jp.png,japan,0.3
435,1987628.8952000032,1217.793099989649,True,55,er.png,eritrea,0.250390625
436,1991600.9142999828,1357.0628000015859,True,94,ir.png,iran,0.20078125
437,1994851.7757999944,1499.4709999882616,True,40,cr.png,costa rica,0.3
438,2000703.2084999955,1186.369500006549,True,56,es.png,spain,0.250390625
439,2003948.0584999837,1124.940300011076,True,40,cr.png,costa rica,0.3
440,2008067.131399992,1263.4539999999106,True,84,hn.png,honduras,0.250390625
441,2012579.3178000022,1300.957399973413,True,127,mk.png,north macedonia,0.3
442,2018173.5640999977,1096.5225999825634,True,86,ht.png,haiti,0.3
443,2021250.4246000026,1178.8430999731645,True,127,mk.png,north macedonia,0.3
444,2026881.7245999817,1716.7264000163414,True,86,ht.png,haiti,0.3
445,2030600.0991999754,1028.6451000138186,True,100,jp.png,japan,0.250390625
446,2033565.2196999872,2131.336599995848,True,201,uz.png,uzbekistan,0.2125
447,2039359.3763999816,1340.5538000224624,True,110,kz.png,kazakhstan,0.3
448,2045501.639299997,1274.4292999850586,True,181,sv.png,el salvador,0.3
449,2050698.0414999998,1189.0260999789461,True,110,kz.png,kazakhstan,0.3
450,2056364.8426999862,1126.8160000036005,True,181,sv.png,el salvador,0.3
451,2060785.886400001,3372.7013999887276,True,40,cr.png,costa rica,0.349609375
452,2067216.9020999863,1079.6269999991637,True,87,hu.png,hungary,0.20078125
453,2071613.0195999867,1107.5928999925964,True,127,mk.png,north macedonia,0.250390625
454,2078074.030399992,1290.9685999911744,True,86,ht.png,haiti,0.250390625
455,2081628.7690000026,2888.810899981763,True,129,mm.png,myanmar,0.3246093750000001
456,2087507.487099996,1484.1471999825444,True,183,sz.png,eswatini,0.20078125
457,2091985.171599983,1443.7639999960084,True,9,au.png,australia,0.3
458,2096670.553599979,1527.3710000037681,True,180,st.png,sao tome and principe,0.3
459,2107408.4297999796,1295.6949000074528,True,9,au.png,australia,0.3
460,2111722.1637999755,1556.8228000192903,True,180,st.png,sao tome and principe,0.3
461,2119370.23239999,1141.4225999903865,True,110,kz.png,kazakhstan,0.250390625
462,2124895.5069999793,2153.2321000122465,True,40,cr.png,costa rica,0.30000000000000004
463,2129988.028199994,1254.8110999921337,True,181,sv.png,el salvador,0.250390625
464,2135008.2264999803,inf,True,211,zw.png,zimbabwe,0.29999999999999993
465,2141638.6953999754,2667.6752000059932,True,188,tl.png,timor leste,0.26171875
466,2147645.3744999887,1391.1869000005536,True,186,th.png,thailand,0.20078125
467,2151535.7640000004,1221.0588000016287,True,123,mc.png,monaco,0.3
468,2155282.105399994,1427.1124000078999,True,2,ag.png,antigua and barbuda,0.3
469,2161913.4129000013,1309.4859999837354,True,123,mc.png,monaco,0.3
470,2165870.0104999878,908.5753000108525,True,2,ag.png,antigua and barbuda,0.3
471,2171514.4529999816,1112.6097000087611,True,9,au.png,australia,0.250390625
472,2176788.643699983,1631.161700002849,True,180,st.png,sao tome and principe,0.250390625
473,2183925.7554999785,1201.9716000068001,True,121,ly.png,libya,0.24999999999999997
474,2187569.760299986,2009.1533999945968,True,46,dj.png,djibouti,0.27070312500000004
475,2192853.759599995,1301.6569000030868,True,140,mz.png,mozambique,0.20078125
476,2199455.354799982,1471.401600021869,True,149,nz.png,new zealand,0.20078125
477,2204239.594899991,2203.6508999881335,True,187,tj.png,tajikistan,0.21445312500000005
478,2210425.6374999825,1094.6695000166073,True,123,mc.png,monaco,0.250390625
479,2213964.2565999823,1362.4446000028402,True,129,mm.png,myanmar,0.27500000000000013
480,2218067.518199998,3712.2690999819897,True,2,ag.png,antigua and barbuda,0.349609375
481,2227289.2795999944,1138.5067999940366,True,131,mo.png,macao,0.2007812500000001
482,2230879.595999984,1484.485900000669,True,211,zw.png,zimbabwe,0.250390625
483,2235360.8241000036,1257.4800999723375,True,109,kw.png,kuwait,0.3
484,2239023.081299994,1170.6079999860376,True,101,ke.png,kenya,0.3
485,2242274.5368999895,959.4655999969691,True,109,kw.png,kuwait,0.3
486,2245649.3444999796,1008.0057000159286,True,101,ke.png,kenya,0.3
487,2249194.0593000036,1281.9840999729931,True,157,ps.png,palestine,0.3
488,2253288.3907999787,1493.9726000009105,True,49,do.png,dominican republic,0.3
489,2260142.2350999783,997.6448000236414,True,157,ps.png,palestine,0.3
490,2263954.736499989,1025.1239000060596,True,49,do.png,dominican republic,0.3
491,2269874.6249999967,1418.6039000051096,True,2,ag.png,antigua and barbuda,0.30000000000000004
492,2276144.948300003,1249.9256999874488,True,163,rs.png,serbia,0.20078125
493,2279659.507099976,1076.94020000007,True,117,ls.png,lesotho,0.20078125
494,2283752.8989999844,1586.0662000197917,True,105,km.png,comoros,0.3
495,2288161.6352999993,2869.9441999774426,True,109,kw.png,kuwait,0.349609375
496,2293264.032499981,1099.0973000004888,True,105,km.png,comoros,0.3
497,2296601.9597999984,1063.3649999797344,True,101,ke.png,kenya,0.250390625
498,2300371.2299999897,1215.556100010872,True,32,cg.png,congo,0.20078125
499,2303698.212099989,1878.6934000095353,True,55,er.png,eritrea,0.20078125
500,2308593.910900003,1869.3653999944218,True,71,gf.png,french guiana,0.25078124999999996
501,2314190.471399983,1318.6136000151746,True,157,ps.png,palestine,0.250390625
502,2318450.633999979,1476.5121000232175,True,49,do.png,dominican republic,0.250390625
503,2324593.345100002,1166.2052999888547,True,56,es.png,spain,0.20078125
504,2327702.85999999,1290.1994000133127,True,84,hn.png,honduras,0.20078125
505,2332360.826399992,1549.1713999947533,True,109,kw.png,kuwait,0.30000000000000004
506,2336436.7153999917,1280.1049999836832,True,100,jp.png,japan,0.20078125
507,2339990.377399983,1517.8890000097454,True,106,kn.png,saint kitts and nevis,0.20507812499999997
508,2346704.5609999914,1270.2403999865055,True,105,km.png,comoros,0.250390625
509,2350105.7616999894,1340.8585999859497,True,103,kh.png,cambodia,0.15117187499999998
510,2354461.9614999974,1863.1234999923036,True,40,cr.png,costa rica,0.2933593750000001
511,2359332.6869999873,1317.0617000139318,True,98,jm.png,jamaica,0.3
512,2363205.3922999767,1080.84950002376,True,120,lv.png,latvia,0.3
513,2367426.843699999,932.6161999776959,True,98,jm.png,jamaica,0.3
514,2371490.722399991,879.8563999878243,True,120,lv.png,latvia,0.3
515,2374997.9960999917,1458.051499998197,True,210,zm.png,zambia,0.3
516,2378939.646599989,1479.6338999876752,True,127,mk.png,north macedonia,0.20078125
517,2384833.4822999896,1189.0152000123635,True,210,zm.png,zambia,0.3
518,2388161.280100001,2262.784599996172,True,86,ht.png,haiti,0.22499999999999998
519,2392425.3764000023,1196.2916999766603,True,18,bh.png,bahrain,0.3
520,2396333.0706999986,1663.698399992194,True,63,ga.png,gabon,0.3
521,2400030.6725999983,1458.9603999918327,True,18,bh.png,bahrain,0.3
522,2403858.488899976,933.4834000035189,True,63,ga.png,gabon,0.3

