trial,start_time,rt,correct,fact_id,question,answer,alpha
1,100812.96850000217,3824.5749000052456,False,34,ch.png,switzerland,0.3
2,112717.02180001012,2192.0258999889484,True,34,ch.png,switzerland,0.3
3,121179.06950000906,3028.7860999960685,True,64,ga.png,gabon,0.3
4,128428.4187000012,1259.1054000076838,True,64,ga.png,gabon,0.3
5,132788.92710000218,3872.7419000060763,True,50,do.png,dominican republic,0.3
6,141989.2267999967,982.0223999995505,True,159,pt.png,portugal,0.3
7,147580.95240000694,1927.3450999899069,True,50,do.png,dominican republic,0.3
8,156003.64720000653,961.2668999907328,True,159,pt.png,portugal,0.3
9,161687.3137000075,1135.7385000010254,True,34,ch.png,switzerland,0.250390625
10,170509.3990000023,1378.8141999975778,True,9,at.png,austria,0.3
11,176688.31630000204,1022.9187000077218,True,64,ga.png,gabon,0.250390625
12,180719.2209000059,1187.613699992653,True,9,at.png,austria,0.3
13,185611.19510000572,1189.1275999951176,True,100,jo.png,jordan,0.3
14,190110.8411000023,945.6497000064701,True,187,th.png,thailand,0.3
15,194607.7212000091,1581.807899987325,True,100,jo.png,jordan,0.3
16,199550.5959000002,1141.7515000066487,True,187,th.png,thailand,0.3
17,204117.66750000243,1268.8368999952218,True,50,do.png,dominican republic,0.250390625
18,213493.08700000984,837.5966999883531,True,159,pt.png,portugal,0.250390625
19,218076.39430000563,2667.434899994987,True,169,sc.png,seychelles,0.3
20,228401.09260000463,1052.0859999960521,True,9,at.png,austria,0.250390625
21,233434.38839999726,1053.4680999990087,True,169,sc.png,seychelles,0.3
22,238718.2654000062,1094.0295999898808,True,163,ro.png,romania,0.3
23,244043.15599999973,1066.5310000040336,True,100,jo.png,jordan,0.250390625
24,248302.52270000346,inf,False,163,ro.png,romania,0.3
25,277860.6165000092,1036.4597999869147,True,187,th.png,thailand,0.250390625
26,282402.05580000475,1387.4864999961574,True,49,dm.png,dominica,0.3
27,287240.9356999997,1075.5882000084966,True,169,sc.png,seychelles,0.250390625
28,292126.4327000099,1906.3641999964602,True,49,dm.png,dominica,0.3
29,299267.16970000416,1193.1073000014294,True,163,ro.png,romania,0.250390625
30,304013.07760000054,1193.5529000038514,True,88,hu.png,hungary,0.3
31,309000.72999999975,913.0854999966687,True,135,mt.png,malta,0.3
32,313111.79910000646,1083.231500000693,True,88,hu.png,hungary,0.3
33,317593.3706000069,592.7867999998853,True,135,mt.png,malta,0.3
34,321254.1487999988,1729.8404000030132,True,200,us.png,united states of america,0.3
35,329844.9716000032,1162.53859999415,True,183,sy.png,syria,0.3
36,334098.212900004,1246.1411999975098,True,200,us.png,united states of america,0.3
37,341412.59420001006,1276.3978999864776,True,183,sy.png,syria,0.3
38,345705.7252000086,1364.3284999998286,True,49,dm.png,dominica,0.250390625
39,350453.00880000286,1112.670899994555,True,171,se.png,sweden,0.3
40,355233.3959000098,768.610399987665,True,209,ye.png,yemen,0.3
41,358891.0009999963,912.645500007784,True,171,se.png,sweden,0.3
42,363560.62770000426,820.4632999986643,True,209,ye.png,yemen,0.3
43,367755.2430000069,3486.2973999988753,True,88,hu.png,hungary,0.349609375
44,375057.01590000535,887.6293999928748,True,135,mt.png,malta,0.250390625
45,378987.48730000807,1628.9962000009837,True,20,bi.png,burundi,0.3
46,384081.9005000085,918.5320999968098,True,200,us.png,united states of america,0.250390625
47,390815.096899998,901.9438000104856,True,20,bi.png,burundi,0.3
48,396384.6443000075,1253.0009999900358,True,183,sy.png,syria,0.250390625
49,400677.31680000725,1523.5344999964582,True,188,tj.png,tajikistan,0.3
50,407117.08490000456,854.5324000006076,True,171,se.png,sweden,0.250390625
51,411300.55430000357,1109.3526000040583,True,188,tj.png,tajikistan,0.3
52,416506.4756000065,1003.3565999910934,False,88,hu.png,hungary,0.3984375
53,420984.33230000956,2244.994900000165,True,209,ye.png,yemen,0.271484375
54,426506.07640000817,2509.9472000001697,False,36,ck.png,cook islands,0.3
55,433308.824000007,2577.771700001904,True,206,vu.png,vanuatu,0.3
56,439792.04440000467,1031.1280000023544,True,36,ck.png,cook islands,0.3
57,446043.130200007,802.6276000018697,True,206,vu.png,vanuatu,0.3
58,452276.8442000088,5494.948999999906,True,20,bi.png,burundi,0.349609375
59,462253.1508000102,967.1061999979429,True,88,hu.png,hungary,0.39726562499999996
60,466617.8787000099,1228.075799997896,True,188,tj.png,tajikistan,0.250390625
61,471951.5586000052,3158.8883999938844,True,64,ga.png,gabon,0.2875
62,478203.2099000062,2760.1950999960536,True,79,gq.png,equatorial guinea,0.3
63,490716.22750000097,1214.531799996621,True,36,ck.png,cook islands,0.250390625
64,496084.0717999963,10406.462000013562,False,79,gq.png,equatorial guinea,0.3
65,510777.54920000734,2462.5438999937614,True,20,bi.png,burundi,0.34062499999999996
66,516631.15169999946,inf,False,206,vu.png,vanuatu,0.349609375
67,539930.1250999997,1335.696000009193,True,88,hu.png,hungary,0.34765625
68,544886.4006000076,1219.5132999913767,True,34,ch.png,switzerland,0.20078125
69,550634.6973000036,2696.2985999998637,True,79,gq.png,equatorial guinea,0.337890625
70,560505.6087999983,1316.5424000035273,True,206,vu.png,vanuatu,0.30000000000000004
71,565592.294800008,1644.898699989426,True,9,at.png,austria,0.20078125
72,570703.3489000023,1401.9740999938222,True,50,do.png,dominican republic,0.20078125
73,579187.9303000023,2636.0872000077507,False,100,jo.png,jordan,0.29999999999999993
74,584798.9941999986,945.6069000007119,True,159,pt.png,portugal,0.20078125
75,593891.1066,1172.2131999995327,True,113,lb.png,lebanon,0.3
76,598555.7587000076,893.6890999902971,True,167,sa.png,saudi arabia,0.3
77,603661.2992000009,2958.653299996513,True,113,lb.png,lebanon,0.3
78,610188.2691000064,535.7188999914797,True,167,sa.png,saudi arabia,0.3
79,614771.3872000022,1308.3342000027187,True,79,gq.png,equatorial guinea,0.33046875
80,621622.4001000082,1475.6903999950737,True,20,bi.png,burundi,0.33710937499999993
81,626655.4966999975,1049.2206000053557,True,187,th.png,thailand,0.20078125
82,632814.7415999993,1127.9496000061044,True,209,ye.png,yemen,0.22187500000000002
83,636988.5792999994,1288.7992000032682,True,163,ro.png,romania,0.20078125
84,641516.6883000056,1304.6746000036364,True,64,ga.png,gabon,0.237890625
85,645967.3075000028,1214.9322000041138,True,169,sc.png,seychelles,0.20078125
86,651114.2230999976,861.5603000071133,True,113,lb.png,lebanon,0.250390625
87,656515.2016000065,1199.1466999897966,True,42,cu.png,cuba,0.3
88,660531.6105000093,1319.9335999961477,True,167,sa.png,saudi arabia,0.250390625
89,665956.542800006,861.0281000001123,True,42,cu.png,cuba,0.3
90,669677.4567999964,10841.794400010258,True,49,dm.png,dominica,0.29999999999999993
91,683792.102300009,2586.72690000094,True,100,jo.png,jordan,0.3066406249999999
92,690402.9124000081,1145.1505000004545,True,135,mt.png,malta,0.20078125
93,695338.3893999999,2261.5673999971477,True,75,gi.png,gibraltar,0.3
94,702522.7160000068,2884.17569999001,True,105,ki.png,kiribati,0.3
95,708975.2752000059,926.2219999945955,True,75,gi.png,gibraltar,0.3
96,714217.4809999997,694.4155000091996,True,105,ki.png,kiribati,0.3
97,718939.6829000034,2947.4830999970436,True,42,cu.png,cuba,0.349609375
98,725596.117299996,1240.7733000000007,True,171,se.png,sweden,0.20078125
99,730118.1013000023,1005.2559000032488,True,200,us.png,united states of america,0.20078125
100,738419.5839000022,2105.0580000010086,True,183,sy.png,syria,0.2125
101,743540.8674000064,1359.5931000018027,True,79,gq.png,equatorial guinea,0.280859375
102,750356.5003999975,1035.7546000013826,True,112,la.png,laos,0.3
103,754246.6872000077,1438.0430999881355,True,54,eg.png,egypt,0.3
104,759082.2654000076,inf,True,112,la.png,laos,0.3
105,797119.036700009,1915.4003000003286,True,54,eg.png,egypt,0.3
106,803424.6215000021,971.539499994833,True,42,cu.png,cuba,0.30000000000000004
107,807122.7788999968,1289.8838000110118,True,75,gi.png,gibraltar,0.250390625
108,813796.3477000012,1027.6041000033729,True,105,ki.png,kiribati,0.250390625
109,818734.1022000037,3039.7093999927165,True,49,dm.png,dominica,0.324609375
110,825368.9037000004,1028.5108999960357,True,112,la.png,laos,0.250390625
111,829372.713100005,2520.1772000000346,True,20,bi.png,burundi,0.3281249999999999
112,835627.2181000095,1243.9785999886226,True,88,hu.png,hungary,0.29804687500000004
113,840248.6701000016,1767.0023999962723,True,206,vu.png,vanuatu,0.2503906250000001
114,845651.154799998,2028.432300008717,True,188,tj.png,tajikistan,0.20156249999999998
115,851544.3923999992,1303.9014000096358,True,36,ck.png,cook islands,0.20078125
116,857085.6192000065,1207.0020999963162,True,54,eg.png,egypt,0.250390625
117,861999.9472000054,1627.233499995782,True,148,np.png,nepal,0.3
118,866620.0788999995,975.0851999997394,True,199,ug.png,uganda,0.3
119,872349.99100001,900.9099999966566,True,148,np.png,nepal,0.3
120,876441.8704999989,620.9347999974852,True,199,ug.png,uganda,0.3
121,880664.0562999964,1162.4235000053886,False,182,sv.png,el salvador,0.3
122,886737.7851000056,3101.173299990478,True,100,jo.png,jordan,0.31874999999999987
123,893073.8582000049,924.481599999126,True,182,sv.png,el salvador,0.3
124,898546.2341000093,1235.875300000771,True,120,lu.png,luxembourg,0.3
125,907271.238900008,1463.0361999879824,True,160,pw.png,palau,0.3
126,912219.3504000024,915.929499999038,True,120,lu.png,luxembourg,0.3
127,917554.9290000054,573.6154000042006,True,160,pw.png,palau,0.3
128,921178.8486000005,979.1646000085166,True,148,np.png,nepal,0.250390625
129,925392.8822000016,1636.582000006456,True,199,ug.png,uganda,0.250390625
130,930202.7944000001,1394.7214000072563,True,49,dm.png,dominica,0.32421875
131,934823.8975999993,inf,True,92,im.png,isle of man,0.3
132,944039.2836000101,5618.868999998085,True,182,sv.png,el salvador,0.349609375
133,953734.9206000072,1225.6785999925341,True,92,im.png,isle of man,0.3
134,961422.187300006,905.5898999940837,True,113,lb.png,lebanon,0.20078125
135,965615.0555000058,1739.6847999916645,True,120,lu.png,luxembourg,0.250390625
136,972219.8406000098,10490.386699995724,True,160,pw.png,palau,0.349609375
137,985923.7773000059,1246.8701000034343,True,167,sa.png,saudi arabia,0.20078125
138,991151.9614999997,1043.0420000047889,True,182,sv.png,el salvador,0.30000000000000004
139,996208.0249999999,1567.3797000054037,True,140,my.png,malaysia,0.3
140,1001293.6660999985,1895.9421000035945,False,72,gf.png,french guiana,0.3
141,1007750.3809000045,2067.991499992786,True,140,my.png,malaysia,0.3
142,1013039.586400002,749.9754000018584,False,72,gf.png,french guiana,0.3
143,1018676.0696999991,1351.2830000108806,False,92,im.png,isle of man,0.349609375
144,1022323.1242000038,2072.034299999359,True,160,pw.png,palau,0.30625
145,1027402.1687000059,1241.2590000021737,True,42,cu.png,cuba,0.2503906250000001
146,1031915.7412000059,1202.2808000037912,True,205,vn.png,vietnam,0.3
147,1037089.1527000058,1123.5532999999123,True,125,md.png,moldova,0.3
148,1042217.6850999967,1862.3360000055982,True,205,vn.png,vietnam,0.3
149,1047538.2404999982,292.1346000075573,True,125,md.png,moldova,0.3
150,1052467.8888000054,1031.6724000002723,True,157,pl.png,poland,0.3
151,1056628.5152000054,856.0922000035644,True,140,my.png,malaysia,0.250390625
152,1060756.125800006,928.106399995042,True,157,pl.png,poland,0.3
153,1064829.5570000047,1345.399600002449,True,92,im.png,isle of man,0.30000000000000004
154,1070070.3511000029,2195.92399999965,True,72,gf.png,french guiana,0.275390625
155,1077808.3559000078,1199.1609999970533,True,20,bi.png,burundi,0.32695312499999984
156,1083987.709299996,1500.775400010636,True,98,je.png,jersey,0.3
157,1089254.566600008,753.6162999894004,True,153,pe.png,peru,0.3
158,1093012.608799996,973.450500008883,True,98,je.png,jersey,0.3
159,1097317.637,229.5340999988839,True,153,pe.png,peru,0.3
160,1100770.4601000005,1122.5679000054952,True,205,vn.png,vietnam,0.250390625
161,1105774.8854000093,3348.268399989931,True,125,md.png,moldova,0.349609375
162,1114212.1684000012,908.1240999950096,True,157,pl.png,poland,0.250390625
163,1118420.6594999996,1020.9425000066403,True,100,jo.png,jordan,0.3066406249999999
164,1122585.8518000022,1408.038099994883,True,78,gn.png,guinea,0.3
165,1127280.261100008,1125.793799990788,True,138,mw.png,malawi,0.3
166,1132284.1842000051,1006.1802999991924,True,78,gn.png,guinea,0.3
167,1136591.281800007,115.24639998981729,True,138,mw.png,malawi,0.3
168,1139951.4987000003,1420.8734999992885,True,98,je.png,jersey,0.250390625
169,1144625.182500007,3403.146999990102,True,153,pe.png,peru,0.349609375
170,1151012.669200005,880.210399991367,True,125,md.png,moldova,0.30000000000000004
171,1155193.0816000095,1096.6516999904998,True,112,la.png,laos,0.20078125
172,1159587.4208000023,947.1107999999076,True,49,dm.png,dominica,0.27460937500000004
173,1163815.6356999972,4510.823600008618,True,105,ki.png,kiribati,0.29999999999999993
174,1172855.4417999985,3748.502300004475,True,75,gi.png,gibraltar,0.25078124999999996
175,1181268.8240999996,2205.4859000055585,True,78,gn.png,guinea,0.27460937500000004
176,1186921.4004000095,805.9806999955326,True,138,mw.png,malawi,0.250390625
177,1190831.6514000036,766.0501999924891,True,153,pe.png,peru,0.30000000000000004
178,1194571.9379000075,1017.8605999972206,True,80,gr.png,greece,0.3
179,1198837.4677000102,1287.4475999996066,True,179,sr.png,suriname,0.3
180,1203867.4786000047,995.8900999918114,True,80,gr.png,greece,0.3
181,1208297.9885000095,596.7301999917254,True,179,sr.png,suriname,0.3
182,1212524.1932000061,1087.7593999905512,True,129,ml.png,mali,0.3
183,1217130.2836999968,3151.7864000052214,True,31,cd.png,democratic republic of the congo,0.3
184,1232871.6693000025,10276.697499997448,True,129,ml.png,mali,0.3
185,1246153.4928000038,inf,True,31,cd.png,democratic republic of the congo,0.3
186,1258967.5968000083,1212.8898999944795,True,160,pw.png,palau,0.25664062500000007
187,1263139.4881000016,985.338700003922,True,80,gr.png,greece,0.250390625
188,1267479.628000001,1703.5581999951974,True,179,sr.png,suriname,0.250390625
189,1273090.1892999974,1172.6877000036184,True,182,sv.png,el salvador,0.2503906250000001
190,1278488.5425999966,1053.626200009603,True,148,np.png,nepal,0.20078125
191,1282601.3870000024,1514.951400007587,True,199,ug.png,uganda,0.20078125
192,1287191.4818000076,1138.7624999918044,True,105,ki.png,kiribati,0.250390625
193,1291821.478400001,1520.1521999987308,True,72,gf.png,french guiana,0.24999999999999997
194,1298590.1300999976,3721.559800003888,False,129,ml.png,mali,0.349609375
195,1626300.091500001,19560.790899995714,False,31,cd.png,democratic republic of the congo,0.28789062499999996
196,1648162.6982000016,1551.4007000019774,True,129,ml.png,mali,0.30000000000000004
197,1652653.9390999968,inf,True,78,gn.png,guinea,0.2992187500000001
198,1659091.186999998,1219.741500012111,True,92,im.png,isle of man,0.2503906250000001
199,1664747.5570000098,2060.0596000002697,True,125,md.png,moldova,0.2503906250000001
200,1670158.043500007,2499.0275000019465,True,153,pe.png,peru,0.2621093750000001
201,1675615.4271999984,1817.2401000047103,True,120,lu.png,luxembourg,0.20078125
202,1683452.5075999992,1428.6633000010625,True,54,eg.png,egypt,0.20078125
203,1688158.231900001,841.9924000045285,True,140,my.png,malaysia,0.20078125
204,1692171.1080999956,1280.499300002819,True,157,pl.png,poland,0.20078125
205,1696512.2092000092,1291.153699988965,True,205,vn.png,vietnam,0.20078125
206,1701758.8600000017,1180.5985999964178,True,98,je.png,jersey,0.20078125
207,1706415.6778000034,3126.5093999970704,True,20,bi.png,burundi,0.3273437499999998
208,1714110.2757000043,inf,True,79,gq.png,equatorial guinea,0.32343749999999993
209,1729068.189400001,1077.3369000088423,True,138,mw.png,malawi,0.20078125
210,1733229.369599998,1469.2596000093035,True,80,gr.png,greece,0.20078125
211,1737795.3297000057,2409.1974000041373,True,179,sr.png,suriname,0.22499999999999998
212,1744172.96180001,1153.6285999901593,True,100,jo.png,jordan,0.30546874999999984
213,1748619.2898000008,2687.4110000063665,True,88,hu.png,hungary,0.2984375
214,1754654.878500005,1648.227500001667,True,31,cd.png,democratic republic of the congo,0.28437499999999993
215,1765849.7600999982,5244.536500002025,True,78,gn.png,guinea,0.30585937500000004
216,1775086.76440001,1450.5978999950457,True,75,gi.png,gibraltar,0.20117187499999997
217,1782341.355700002,2279.43579999567,True,79,gq.png,equatorial guinea,0.32304687499999996
218,1789778.4584000036,2463.026099998504,True,1,ae.png,united arab emirates,0.3
219,1807315.5151000102,2206.846199987922,True,61,fm.png,micronesia,0.3
220,1814564.3680000068,1194.273000000976,True,1,ae.png,united arab emirates,0.3
221,1824516.6521000066,1028.8882000022568,True,61,fm.png,micronesia,0.3
222,1830926.6208000043,1444.1061999970116,True,129,ml.png,mali,0.2503906250000001
223,1835379.3587999973,1408.842500008177,True,164,rs.png,serbia,0.3
224,1841735.1687000045,1220.363899992779,True,27,bw.png,botswana,0.3
225,1849360.7882000068,512.2797999940813,True,164,rs.png,serbia,0.3
226,1853043.4986000038,340.48749999771826,True,27,bw.png,botswana,0.3
227,1858417.643599998,1274.8355000077281,True,149,nr.png,nauru,0.3
228,1862981.900400002,1558.6600999957882,True,96,is.png,iceland,0.3
229,1868023.7895000027,812.3612000052817,True,149,nr.png,nauru,0.3
230,1871922.772200007,531.8715000029188,True,96,is.png,iceland,0.3
231,1876012.292600004,1219.123200003989,True,1,ae.png,united arab emirates,0.250390625
232,1884527.1781000048,840.400400003884,True,61,fm.png,micronesia,0.250390625
233,1890232.6237000087,6872.984999994747,True,209,ye.png,yemen,0.271484375
234,1900033.264400001,996.9185000082944,True,164,rs.png,serbia,0.250390625
235,1904200.4894999992,1024.1275000006426,True,27,bw.png,botswana,0.250390625
236,1909036.7813000048,inf,True,72,gf.png,french guiana,0.29960937499999996
237,1917004.1103999973,2221.3791000104975,True,149,nr.png,nauru,0.27460937500000004
238,1922291.6716000037,992.8917999931145,True,96,is.png,iceland,0.250390625
239,1926372.304100005,1482.1250999956392,True,196,tw.png,taiwan,0.3
240,1931015.271600001,1031.6038000020199,True,20,bi.png,burundi,0.27773437499999987
241,1935498.887000009,1236.2747000004165,True,196,tw.png,taiwan,0.3
242,1939819.5205000085,1259.1300999918021,True,11,aw.png,aruba,0.3
243,1944305.655700009,1639.4754999929573,True,41,cr.png,costa rica,0.3
244,1949766.2389000035,889.09039999987,True,11,aw.png,aruba,0.3
245,1953881.8790000076,380.85589998820797,True,41,cr.png,costa rica,0.3
246,1958041.8020000071,1590.7618999916594,True,206,vu.png,vanuatu,0.2007812500000001
247,1963385.959799998,1539.8538000010885,True,40,co.png,colombia,0.3
248,1969601.9671999966,3313.385800007265,True,78,gn.png,guinea,0.30625
249,1976054.5853000076,1122.70049999631,True,40,co.png,colombia,0.3
250,1981759.7767999978,1099.6385000036098,True,170,sd.png,sudan,0.3
251,1987134.6057000046,1140.9032999945339,True,196,tw.png,taiwan,0.250390625
252,1991325.925199999,656.0305000019725,True,170,sd.png,sudan,0.3
253,1994887.9785000025,inf,True,79,gq.png,equatorial guinea,0.32343749999999993
254,2003729.7962000011,5078.758200004697,True,11,aw.png,aruba,0.349609375
255,2011856.0618000047,2176.1612999981735,True,41,cr.png,costa rica,0.262109375
256,2017690.3210000019,1206.4850000024308,True,72,gf.png,french guiana,0.26796875
257,2025330.559599999,3488.167000003159,True,64,ga.png,gabon,0.28437500000000004
258,2031805.4938999994,1156.409000003012,True,40,co.png,colombia,0.250390625
259,2036496.6763999984,1191.4714000010863,True,209,ye.png,yemen,0.22187500000000002
260,2040823.139,2051.946499996353,True,170,sd.png,sudan,0.255859375
261,2045715.7154000015,1674.8741000047885,True,11,aw.png,aruba,0.30000000000000004
262,2050480.567400009,1587.0989999966696,True,23,bo.png,bolivia,0.3
263,2056631.1936999992,inf,True,31,cd.png,democratic republic of the congo,0.28632812499999993
264,2071618.551000007,inf,True,23,bo.png,bolivia,0.3
265,2082837.8884999985,3115.890700006159,True,10,au.png,australia,0.3
266,2091393.198100006,3246.6757999935653,True,86,hr.png,croatia,0.3
267,2098198.301700002,1216.431299995631,True,10,au.png,australia,0.3
268,2103726.167700006,767.3419999917969,True,86,hr.png,croatia,0.3
269,2107911.344399996,2026.5862000086345,True,149,nr.png,nauru,0.23125000000000007
270,2113055.2637000075,1438.9967999886721,True,210,za.png,south africa,0.3
271,2119120.2429999975,954.3053000089712,True,97,it.png,italy,0.3
272,2123692.63640001,1407.321599996183,True,210,za.png,south africa,0.3
273,2129387.570899999,960.3476000046358,True,97,it.png,italy,0.3
274,2133810.117000001,1536.0797000029124,True,23,bo.png,bolivia,0.250390625
275,2139265.3276000055,2327.9268000042066,True,195,tv.png,tuvalu,0.3
276,2145397.88460001,1115.0908999992535,True,42,cu.png,cuba,0.2007812500000001
277,2150034.0173000004,1133.8857000083663,True,195,tv.png,tuvalu,0.3
278,2155204.7066000085,1513.253500001505,True,10,au.png,australia,0.250390625
279,2160597.2492,1038.4814999997616,True,86,hr.png,croatia,0.250390625
280,2165089.769700004,1616.599100001622,True,64,ga.png,gabon,0.28398437500000007
281,2170630.8877999983,inf,True,58,et.png,ethiopia,0.3
282,2180861.762300003,1432.72529999353,True,210,za.png,south africa,0.250390625
283,2188431.6488000043,1648.6396999969147,True,58,et.png,ethiopia,0.3
284,2194517.8417999996,1055.1207000100985,True,97,it.png,italy,0.250390625
285,2199053.060200007,2348.202399996575,True,160,pw.png,palau,0.24375000000000005
286,2204338.3600000087,2596.9050999991596,False,195,tv.png,tuvalu,0.349609375
287,2220789.4853000036,3528.36389999697,False,100,jo.png,jordan,0.3058593749999998
288,2228279.975700003,1028.0638999976218,True,27,bw.png,botswana,0.20078125
289,2234890.3797000092,1942.8213999927975,True,96,is.png,iceland,0.20078125
290,2240090.0526000042,1054.4518999955617,False,164,rs.png,serbia,0.29999999999999993
291,2246208.116599999,inf,True,58,et.png,ethiopia,0.349609375
292,2257740.8719000085,1350.312899987679,True,195,tv.png,tuvalu,0.30000000000000004
293,2262380.0886000097,1362.88109999476,True,61,fm.png,micronesia,0.20078125
294,2267642.0961999977,3091.2948000039905,True,1,ae.png,united arab emirates,0.25078124999999996
295,2276783.576400005,3540.411800000351,True,41,cr.png,costa rica,0.31171874999999993
296,2284256.046399998,17302.632899998687,False,11,aw.png,aruba,0.349609375
297,2304565.6400000006,3444.751200004481,True,58,et.png,ethiopia,0.39921874999999996
298,2313153.1386999995,1252.253400001675,True,196,tw.png,taiwan,0.20078125
299,2318486.1892000046,2887.399800005369,True,78,gn.png,guinea,0.327734375
300,2324653.170100006,3590.845799990464,True,170,sd.png,sudan,0.30546874999999996
301,2331154.9390000002,1260.6898000082,True,88,hu.png,hungary,0.248828125
302,2335799.9998000013,1156.528799998574,True,58,et.png,ethiopia,0.398828125
303,2340696.684299997,1423.312300001271,True,79,gq.png,equatorial guinea,0.31132812499999996
304,2348078.9497000077,1141.1402999949642,True,11,aw.png,aruba,0.34921875
305,2352172.529999996,3299.6203000075184,True,164,rs.png,serbia,0.324609375
306,2358834.0131000006,1429.978400003165,True,153,pe.png,peru,0.2125000000000001
307,2363218.0872000027,1620.1335999937728,True,41,cr.png,costa rica,0.26445312499999996
308,2368614.832799998,1167.2664000070654,True,182,sv.png,el salvador,0.2007812500000001
309,2373789.2589999973,1152.445800005924,True,40,co.png,colombia,0.20078125
310,2378602.9745999984,2468.7826000009663,True,183,sy.png,syria,0.20898437499999997
311,2384100.379399999,1289.124200004153,True,37,cl.png,chile,0.3
312,2388375.8318000035,1228.1116999946535,True,99,jm.png,jamaica,0.3
313,2392758.372800003,997.0619999947958,True,37,cl.png,chile,0.3
314,2396690.4103999985,540.4143000049517,True,99,jm.png,jamaica,0.3
315,2400480.722200009,1009.041499986779,True,58,et.png,ethiopia,0.34921875
316,2405767.71,1152.383900000248,True,198,ua.png,ukraine,0.3
317,2410811.6745000007,1291.0066000041552,True,105,ki.png,kiribati,0.20078125
318,2415973.3422999997,1553.7011999986134,True,198,ua.png,ukraine,0.3
319,2420962.1900000055,1175.3363000028767,True,170,sd.png,sudan,0.258203125
320,2425008.392100004,6736.905300000217,True,3,ag.png,antigua and barbuda,0.3
321,2442748.223400005,1105.5657999971882,True,37,cl.png,chile,0.250390625
322,2446793.4627000066,799.4972000019625,True,3,ag.png,antigua and barbuda,0.3
323,2453194.303199998,1707.6014000046998,True,99,jm.png,jamaica,0.250390625
324,2458020.2601000057,1522.25690000318,True,108,kp.png,north korea,0.3
325,2463945.435700007,945.7971999943256,True,198,ua.png,ukraine,0.250390625
326,2468799.669400003,1168.974700005725,True,108,kp.png,north korea,0.3
327,2474292.0133000007,1131.5269000041299,False,164,rs.png,serbia,0.328125
328,2478625.804700001,1779.845399999991,True,49,dm.png,dominica,0.22500000000000006
329,2483945.949000001,2599.951500000432,True,60,fj.png,fiji,0.3
330,2490193.516600004,1192.5036000027321,True,11,aw.png,aruba,0.29960937500000007
331,2494429.8470000066,2766.181099999696,True,60,fj.png,fiji,0.3
332,2500025.912099998,2900.4048000061885,True,195,tv.png,tuvalu,0.3246093750000001
333,2506949.326700007,3860.918699996546,True,3,ag.png,antigua and barbuda,0.349609375
334,2516482.2655000025,1343.2647000011057,True,86,hr.png,croatia,0.20078125
335,2521292.3410000075,1253.5253999959677,True,78,gn.png,guinea,0.32734375000000004
336,2525774.6272000074,1849.143599989824,True,108,kp.png,north korea,0.250390625
337,2532915.5379000003,1501.0958000058308,True,10,au.png,australia,0.20078125
338,2539001.615500005,1761.6086000050418,True,23,bo.png,bolivia,0.20078125
339,2544225.7123000016,1788.7066999976523,True,210,za.png,south africa,0.20078125
340,2553728.5947000054,1601.6651999964379,True,60,fj.png,fiji,0.250390625
341,2558249.77200001,1504.7037999900058,True,3,ag.png,antigua and barbuda,0.30000000000000004
342,2565598.8402000074,1150.9764999938197,True,97,it.png,italy,0.20078125
343,2571151.802399996,2788.679400007706,True,31,cd.png,democratic republic of the congo,0.296875
344,2583632.719400004,1713.3551000007428,True,211,zm.png,zambia,0.3
345,2591007.261699997,1342.1881000101566,True,76,gl.png,greenland,0.3
346,2596611.095,1149.3886000099592,True,211,zm.png,zambia,0.3
347,2601028.776200008,189.05619998974726,True,76,gl.png,greenland,0.3
348,2607314.1859000027,13117.362200005911,True,115,li.png,liechtenstein,0.3
349,2627016.7097000084,1015.8614999963902,True,185,td.png,chad,0.3
350,2631050.786000007,1105.349199992139,True,115,li.png,liechtenstein,0.3
351,2637342.7376000034,507.6050999928266,True,185,td.png,chad,0.3
352,2640776.503900008,1274.5151999988593,True,195,tv.png,tuvalu,0.27500000000000013
353,2647062.2854999965,1056.465100002475,True,58,et.png,ethiopia,0.29960937500000007
354,2651969.070100007,1106.6804000004195,True,211,zm.png,zambia,0.250390625
355,2656545.0165000074,1467.6050999988802,True,76,gl.png,greenland,0.250390625
356,2661694.606100005,1282.9720000009984,True,64,ga.png,gabon,0.23437500000000008
357,2665979.421199998,1328.711499998346,True,16,be.png,belgium,0.3
358,2671146.685700005,1327.908299994655,True,125,md.png,moldova,0.2007812500000001
359,2675824.7902,1118.2938999994658,True,16,be.png,belgium,0.3
360,2680515.2403999963,1536.9381000055,True,164,rs.png,serbia,0.32695312499999996
361,2685259.0437000035,11505.920499999542,True,115,li.png,liechtenstein,0.349609375
362,2702475.1976999976,1458.5209000073373,True,185,td.png,chad,0.250390625
363,2706804.6315000104,1291.4118999904022,True,152,pa.png,panama,0.3
364,2711043.2336000083,2972.4074999978766,True,145,ni.png,nicaragua,0.3
365,2721054.402399997,5330.576300010085,True,152,pa.png,panama,0.3
366,2729295.9793000044,702.5243999962695,True,145,ni.png,nicaragua,0.3
367,2733837.0807000026,1043.9497000044212,True,16,be.png,belgium,0.250390625
368,2738483.8649000013,1510.1457999991253,True,115,li.png,liechtenstein,0.30000000000000004
369,2745051.433700006,1098.9554999978282,True,92,im.png,isle of man,0.2007812500000001
370,2749895.5855999957,48289.99160000263,False,37,cl.png,chile,0.29999999999999993
371,2800479.2999000056,1437.5375999952666,True,152,pa.png,panama,0.250390625
372,2806109.7876999993,1065.200600001961,False,145,ni.png,nicaragua,0.349609375
373,2811993.726800007,1155.5152999935672,True,99,jm.png,jamaica,0.20078125
374,2816111.9525999967,1120.0460000107996,True,198,ua.png,ukraine,0.20078125
375,3138949.3590000058,9829.76480000047,True,145,ni.png,nicaragua,0.33124999999999993
376,3153562.503499998,1766.0991000011563,True,37,cl.png,chile,0.250390625
377,3158211.6333000013,2574.4605000070296,False,3,ag.png,antigua and barbuda,0.3246093750000001
378,3166985.793200001,4506.7998000015505,True,108,kp.png,north korea,0.275
379,3175814.7344000028,3408.3851000028662,True,60,fj.png,fiji,0.275
380,3182039.3355999985,2759.038800009992,False,115,li.png,liechtenstein,0.34648437500000007
381,3194043.42680001,3090.1078999890015,True,78,gn.png,guinea,0.33867187500000007
382,3200326.2676000013,1156.938900006935,True,76,gl.png,greenland,0.20078125
383,3206096.7725000083,10936.089299997315,True,211,zm.png,zambia,0.2984375
384,3220346.068500003,1894.7344000041485,True,164,rs.png,serbia,0.3265625
385,3225416.5098000085,6122.890399987344,True,185,td.png,chad,0.29999999999999993
386,3234428.2351,4183.069500009995,True,1,ae.png,united arab emirates,0.2871093749999999
387,3245343.461800003,2006.291700003203,True,16,be.png,belgium,0.20078125
388,3251005.893499998,4346.575100004207,True,31,cd.png,democratic republic of the congo,0.29804687500000004
389,3269583.298199999,5392.599400002044,True,145,ni.png,nicaragua,0.3316406249999999
390,3281089.2459000023,2495.1781999990344,True,115,li.png,liechtenstein,0.3343750000000001
391,3289039.9814999984,2154.392199998256,True,100,jo.png,jordan,0.26796874999999987
392,3294534.5065,2703.3557999967597,True,3,ag.png,antigua and barbuda,0.3242187500000001
393,3302762.3564000097,1161.6197999971919,True,152,pa.png,panama,0.20078125
394,3306943.795500003,1232.2419999986887,True,179,sr.png,suriname,0.175390625
395,3313038.895000005,3017.8865999914706,True,72,gf.png,french guiana,0.28007812499999996
396,3320457.690299998,1381.8315000096336,True,211,zm.png,zambia,0.248828125
397,3325085.420000003,inf,True,79,gq.png,equatorial guinea,0.32421875
398,3337190.7381000053,2447.3818999980576,True,185,td.png,chad,0.28789062499999996
399,3342926.0346000083,inf,True,41,cr.png,costa rica,0.3140624999999999
400,3351055.677199998,1288.155800008215,True,149,nr.png,nauru,0.18164062500000008
401,3355423.1758000096,2699.388499997556,True,9,at.png,austria,0.201171875
402,3362043.4164000032,1192.9895000066608,True,11,aw.png,aruba,0.2500000000000001
403,3366349.8011000045,inf,True,108,kp.png,north korea,0.291015625
404,3373965.4247,948.367600009311,True,171,se.png,sweden,0.15117187499999998
405,3378262.7508000005,1405.06089999713,True,60,fj.png,fiji,0.27460937500000004
406,3382518.1338999975,1318.6222000075504,False,163,ro.png,romania,0.250390625
407,3386637.2203000067,3493.0067999954335,True,34,ch.png,switzerland,0.22539062499999998
408,3394791.82340001,1479.803299997002,True,1,ae.png,united arab emirates,0.28593749999999984
409,3402215.282400008,1697.3239999930374,True,78,gn.png,guinea,0.328125
410,3407084.7590000047,inf,True,170,sd.png,sudan,0.30781249999999993
411,3412505.8969000094,1499.6858999948017,True,135,mt.png,malta,0.15117187499999998
412,3417013.5228,21727.582599997055,True,50,do.png,dominican republic,0.201171875
413,3447743.6810000073,1963.8540000012144,True,41,cr.png,costa rica,0.31367187499999993
414,3453303.854400001,2713.154700002633,True,145,ni.png,nicaragua,0.33906249999999993
415,3459977.832400007,1927.808699998539,True,159,pt.png,portugal,0.15117187499999998
416,3466735.0200000075,5625.35950000165,True,129,ml.png,mali,0.30000000000000004
417,3475903.8696000064,1552.696600003168,True,200,us.png,united states of america,0.15117187499999998
418,3484555.885900001,1224.1251999950036,True,187,th.png,thailand,0.15117187499999998
419,3490005.1789999995,1373.4225000082515,True,115,li.png,liechtenstein,0.323828125
420,3496562.1813000035,1258.8360999943689,True,188,tj.png,tajikistan,0.151953125
421,3504348.782000001,978.2639000038616,True,170,sd.png,sudan,0.30742187499999996
422,3508193.388300002,1595.0738999960013,True,169,sc.png,seychelles,0.15117187499999998
423,3516906.0899000033,2472.0734000001103,True,3,ag.png,antigua and barbuda,0.3222656250000001
424,3524674.5730999974,inf,True,164,rs.png,serbia,0.351171875
425,3530284.4553000033,1001.6728000044823,True,113,lb.png,lebanon,0.15117187499999998
426,3534739.015600004,1421.4074000045657,True,58,et.png,ethiopia,0.2500000000000001
427,3542209.1724000056,2588.2673000013456,True,36,ck.png,cook islands,0.201171875
428,3549204.7364000026,3201.625700007193,True,163,ro.png,romania,0.2515625
429,3555564.142000003,1061.8928000042215,True,167,sa.png,saudi arabia,0.15117187499999998
430,3560683.241599996,4392.348300010897,True,129,ml.png,mali,0.305078125
431,3567922.8220000076,2902.352399993222,True,195,tv.png,tuvalu,0.2972656250000002
432,3574265.3187999967,1178.2896000077017,True,112,la.png,laos,0.15117187499999998
433,3578222.0946000014,inf,True,79,gq.png,equatorial guinea,0.36210937499999996
434,3588673.8189000026,1196.5834000003524,True,199,ug.png,uganda,0.15117187499999998
435,3592895.094799998,974.5614999993704,True,148,np.png,nepal,0.15117187499999998
436,3597400.7105000056,1518.347999997437,True,108,kp.png,north korea,0.290625
437,3603200.1514000003,3084.9592000013217,True,17,bf.png,burkina faso,0.3
438,3611155.1079000058,1813.2692999932915,True,208,xk.png,kosovo,0.3
439,3616492.0310000014,1078.8451999980025,True,17,bf.png,burkina faso,0.3
440,3623712.6804,678.3965000067838,True,208,xk.png,kosovo,0.3
441,3627655.921400001,1105.8988000005484,True,145,ni.png,nicaragua,0.33867187499999996
442,3635846.215900005,3874.043299990706,True,136,mu.png,mauritius,0.3
443,3644142.0180999995,13322.309499999043,True,56,er.png,eritrea,0.3
444,3661469.4922000053,1108.102400001604,True,136,mu.png,mauritius,0.3
445,3666629.795000001,1065.8688999973238,True,56,er.png,eritrea,0.3
446,3671337.620200007,1290.6137999962084,True,79,gq.png,equatorial guinea,0.3609374999999999
447,3678547.848100003,3968.2307000039145,True,17,bf.png,burkina faso,0.349609375
448,3688118.525900005,976.8915000022389,True,208,xk.png,kosovo,0.250390625
449,3692404.7072999966,inf,True,164,rs.png,serbia,0.38749999999999996
450,3698409.866700007,4476.965399997309,False,185,td.png,chad,0.29999999999999993
451,3706202.8267999995,inf,True,31,cd.png,democratic republic of the congo,0.34375
452,3720693.674599999,1083.5430000009947,True,136,mu.png,mauritius,0.250390625
453,3727258.036600004,1270.5821999986656,True,17,bf.png,burkina faso,0.30000000000000004
454,3732754.427799999,2632.7672000043094,True,56,er.png,eritrea,0.30585937500000004
455,3740053.602400003,1366.1182000068948,True,41,cr.png,costa rica,0.2640625
456,3745814.4829000086,1159.5315999872983,True,164,rs.png,serbia,0.337890625
457,3750164.353,1857.1480999961495,True,72,gf.png,french guiana,0.23203124999999997
458,3756636.3687999984,1005.7715000002645,True,160,pw.png,palau,0.24335937500000004
459,3763842.3058000044,1631.2072000000626,True,176,sm.png,san marino,0.3
460,3771177.4459000006,1439.315700001549,True,31,cd.png,democratic republic of the congo,0.343359375
461,3780924.863100008,708.4971000002697,True,176,sm.png,san marino,0.3
462,3785437.7209000085,1112.3952999915928,True,170,sd.png,sudan,0.2578125
463,3789555.4836000083,11513.01739999326,True,181,st.png,sao tome and principe,0.3
464,3810258.727200009,1457.8801999888383,True,60,fj.png,fiji,0.22500000000000006
465,3814514.9808999994,1188.9110000049695,True,181,st.png,sao tome and principe,0.3
466,3822654.597700006,1715.3488000039943,True,1,ae.png,united arab emirates,0.28554687499999987
467,3832268.6060999986,1013.7360000079498,True,176,sm.png,san marino,0.250390625
468,3837133.744699997,1340.8511000014842,True,3,ag.png,antigua and barbuda,0.31953125000000016
469,3843701.8053000066,inf,True,56,er.png,eritrea,0.3125
470,3849672.4346999982,2733.256899998989,True,129,ml.png,mali,0.30546874999999996
471,3855284.843900008,1332.706999993883,True,115,li.png,liechtenstein,0.27421875000000007
472,3861579.9820999964,12485.115400006063,True,195,tv.png,tuvalu,0.2976562500000002
473,3877765.602600004,11550.521199998911,True,181,st.png,sao tome and principe,0.349609375
474,3895420.817200007,4665.325900001451,True,79,gq.png,equatorial guinea,0.3613281249999999
475,3906712.7360000014,2073.652699997183,True,145,ni.png,nicaragua,0.33046875
476,3912718.0458000074,4345.904999994673,True,78,gn.png,guinea,0.328515625
477,3920332.154500007,1243.734499992337,True,181,st.png,sao tome and principe,0.30000000000000004
478,3927767.673800001,1306.9876000080258,True,139,mx.png,mexico,0.3
479,3932621.936099997,2511.336499999743,True,128,mk.png,north macedonia,0.3
480,3940424.7873999993,1425.0277999960817,True,139,mx.png,mexico,0.3
481,3947495.5432999996,680.224900003057,True,128,mk.png,north macedonia,0.3
482,3953242.199400003,1717.1703000059351,True,146,nl.png,netherlands,0.3
483,3958782.6919000074,4755.3135999911465,True,194,tt.png,trinidad and tobago,0.3
484,3973517.928600006,1203.8538999911398,True,146,nl.png,netherlands,0.3
485,3978617.424199998,751.3537000049837,True,194,tt.png,trinidad and tobago,0.3
486,3985122.2486000042,1654.5865999944508,False,17,bf.png,burkina faso,0.349609375
487,3992227.496000007,4814.94039999973,True,139,mx.png,mexico,0.349609375
488,4002743.676099999,2070.3816000022925,True,128,mk.png,north macedonia,0.255859375
489,4010824.30990001,1431.3341999952681,True,31,cd.png,democratic republic of the congo,0.30625
490,4021974.127399997,1752.60190000711,True,56,er.png,eritrea,0.287109375
491,4027358.5825000047,2108.4632999990135,False,185,td.png,chad,0.30195312499999993
492,4032737.283499999,1232.7543999999762,True,146,nl.png,netherlands,0.250390625
493,4037723.0428000037,1817.0888000023551,True,194,tt.png,trinidad and tobago,0.250390625
494,4047501.474500008,967.754300000146,True,139,mx.png,mexico,0.30000000000000004
495,4051857.989099997,1208.5960000115447,True,17,bf.png,burkina faso,0.34921875
496,4057636.8793,875.0309000024572,True,208,xk.png,kosovo,0.20078125
497,4061813.3105000015,1461.2821000046097,True,108,kp.png,north korea,0.29023437500000004
498,4068645.040400006,1020.6341000013053,True,34,ch.png,switzerland,0.17578124999999997
499,4076920.530400006,1370.073500001803,True,98,je.png,jersey,0.15117187499999998
500,4081619.534600002,2051.1401999974623,True,157,pl.png,poland,0.15117187499999998
501,4086802.7620000066,960.6007999973372,True,138,mw.png,malawi,0.15117187499999998
502,4090911.4124000045,1514.0835000053048,True,136,mu.png,mauritius,0.20078125
503,4096273.3381,2609.454700010363,True,47,dj.png,djibouti,0.3
504,4103614.801100004,3132.441399997566,True,37,cl.png,chile,0.275
505,4109859.0540000005,1359.9097999976948,False,47,dj.png,djibouti,0.3
506,4115194.5894000093,1323.6245999867097,True,66,gb-eng.png,england,0.3
507,4119856.9620000054,1265.7457000021823,True,52,ec.png,ecuador,0.3
508,4124550.960699999,1144.9347000014968,True,66,gb-eng.png,england,0.3
509,4128937.7376000048,536.0493000042625,True,52,ec.png,ecuador,0.3
510,4132899.9777999995,996.7401000033133,True,140,my.png,malaysia,0.15117187499999998
511,4137130.8578000027,3493.561900002416,True,111,kz.png,kazakhstan,0.3
512,4147517.0209000064,1062.4697000021115,True,80,gr.png,greece,0.15117187499999998
513,4152090.024300007,1154.3565000025555,True,111,kz.png,kazakhstan,0.3
514,4158951.8172000097,1780.5013999897055,True,118,ls.png,lesotho,0.3
515,4165888.549800002,6519.899299993645,True,47,dj.png,djibouti,0.349609375
516,4176702.6108999997,1513.933699999936,True,118,ls.png,lesotho,0.3
517,4182930.6551000047,992.2627000049688,True,66,gb-eng.png,england,0.250390625
518,4187232.6614000048,1088.251399997156,True,52,ec.png,ecuador,0.250390625
519,4192423.4526000074,1667.1530999881215,True,181,st.png,sao tome and principe,0.2503906250000001
520,4200225.086699996,951.4696000115946,True,176,sm.png,san marino,0.20078125
521,4205320.387600005,1695.403299992904,True,17,bf.png,burkina faso,0.29960937500000007
522,4211731.265399998,1335.1612999979407,True,111,kz.png,kazakhstan,0.250390625
523,4217540.998199998,1502.651000002399,True,47,dj.png,djibouti,0.34921875
524,4222870.192400005,1842.3444999940693,True,79,gq.png,equatorial guinea,0.3609374999999999
525,4231286.537000007,3777.0759999984875,True,118,ls.png,lesotho,0.349609375
526,4238672.652900001,3016.86149999965,False,163,ro.png,romania,0.251953125
527,4244565.677000006,3056.5871000001207,True,205,vn.png,vietnam,0.201171875
528,4251155.2989000045,4422.179300003685,True,20,bi.png,burundi,0.3273437499999998
529,4259274.496099999,3078.7011000066996,True,120,lu.png,luxembourg,0.208203125
530,4268220.584099996,1330.2690000124276,True,24,br.png,brazil,0.3
531,4273388.772100006,1267.2335999961942,True,158,ps.png,palestine,0.3
532,4278405.348800006,1300.2223999937996,True,24,br.png,brazil,0.3
533,4282986.476500009,442.4985999939963,True,158,ps.png,palestine,0.3
534,4287557.46560001,1414.5676999902353,True,118,ls.png,lesotho,0.30000000000000004
535,4293109.5516000055,986.5234000030905,True,139,mx.png,mexico,0.2503906250000001
536,4297673.263799996,1499.8211000049487,True,3,ag.png,antigua and barbuda,0.3183593750000001
537,4304481.781299997,1192.2880000062287,True,47,dj.png,djibouti,0.29960937500000007
538,4309968.338100007,1254.6323999995366,True,128,mk.png,north macedonia,0.20625000000000002
539,4318036.034600009,1114.804899988696,True,20,bi.png,burundi,0.32695312499999984
540,4322680.0315000005,1862.8272000057623,True,129,ml.png,mali,0.305078125
541,4327449.4825,2745.215200004168,True,24,br.png,brazil,0.33710937499999993
542,4333685.853700008,1375.2335999887437,True,158,ps.png,palestine,0.250390625
543,4654475.205399998,1391.5651999991387,True,24,br.png,brazil,0.2875
544,4660819.857800001,1109.6280000051484,False,146,nl.png,netherlands,0.2875
545,4665616.387500006,inf,False,194,tt.png,trinidad and tobago,0.2875
546,4703758.033400008,1366.2531000012532,True,118,ls.png,lesotho,0.2503906250000001
547,4711250.751800005,1138.8479000022635,True,66,gb-eng.png,england,0.20078125
548,4715946.246100008,inf,True,52,ec.png,ecuador,0.29921875
549,4726221.419100009,1188.3452999908477,True,145,ni.png,nicaragua,0.30351562499999996
550,4731219.14690001,1280.2624999890104,True,111,kz.png,kazakhstan,0.20078125
551,4739619.853600001,2144.125899998471,True,56,er.png,eritrea,0.24375
552,4745389.3305000095,16903.32599999942,False,185,td.png,chad,0.35
553,4765486.862899997,2581.6438000043854,True,37,cl.png,chile,0.269140625
554,4771134.408400001,2426.755699998699,True,158,ps.png,palestine,0.22499999999999998
555,4778243.274100008,1288.0240999944508,True,164,rs.png,serbia,0.28828125000000004
556,4782731.798000008,1482.5375999938697,True,195,tv.png,tuvalu,0.29648437500000013
557,4789097.3987000035,1210.9494000030681,True,20,bi.png,burundi,0.2773437499999999
558,4795098.1954000015,1965.7961000055075,True,78,gn.png,guinea,0.28046874999999993
559,4800265.948600004,1289.7534999940544,True,79,gq.png,equatorial guinea,0.31132812499999996
560,4806878.722599998,1572.500599999912,True,1,ae.png,united arab emirates,0.23593749999999988
561,4814761.453800005,1728.6859000017866,True,47,dj.png,djibouti,0.2500000000000001
562,4820182.482700009,3038.168599989265,False,185,td.png,chad,0.35429687499999996
563,4826889.551300002,7320.574900005013,True,52,ec.png,ecuador,0.29960937499999996
564,4837783.798300006,1374.1804000018165,True,146,nl.png,netherlands,0.237890625
565,4845099.991800002,2423.040699998848,True,194,tt.png,trinidad and tobago,0.2691406249999999
566,4854255.729600001,1295.1949999993667,True,211,zm.png,zambia,0.19921875000000003
567,4858839.795599997,inf,True,108,kp.png,north korea,0.2914062500000001
568,4867118.504400001,1767.127800005488,True,96,is.png,iceland,0.15117187499999998
569,4872165.986100008,2399.8511999966577,True,27,bw.png,botswana,0.15117187499999998
570,4879121.4798,3419.6034000050277,True,196,tw.png,taiwan,0.22539062499999998
571,4885737.384599998,1585.4097000118345,True,3,ag.png,antigua and barbuda,0.26875000000000016
572,4901066.031800001,1248.4541000016034,True,24,br.png,brazil,0.237890625
573,4905924.877800004,1800.9036000007764,True,40,co.png,colombia,0.15117187499999998
574,4911397.397599998,1417.2686000093818,True,183,sy.png,syria,0.15937499999999996
575,4915819.517199998,1255.151000005193,True,61,fm.png,micronesia,0.15117187499999998
576,4922695.787100005,1339.1935999970883,True,54,eg.png,egypt,0.15117187499999998
577,4927834.900200003,4603.094999998808,True,133,mq.png,martinique,0.3
578,4937758.247400008,1444.6143999956548,True,210,za.png,south africa,0.15117187499999998

