trial,start_time,rt,correct,fact_id,question,answer,alpha
1,7530.867599998601,4710.311699949671,True,95,is.png,iceland,0.3
2,17936.945299967192,1786.1923000309616,True,95,is.png,iceland,0.3
3,23159.564699977636,1450.97020000685,True,58,fi.png,finland,0.3
4,27907.736899971496,1204.7808999777772,True,58,fi.png,finland,0.3
5,32440.043599985074,1455.7022000080906,True,85,hr.png,croatia,0.3
6,39632.133599952795,2019.014600024093,True,183,sz.png,eswatini,0.3
7,50520.605899975635,1246.5603000018746,True,85,hr.png,croatia,0.3
8,56628.67149995873,1075.5648000049405,True,183,sz.png,eswatini,0.3
9,61677.042399998754,5588.941299996804,False,153,pg.png,papua new guinea,0.3
10,69570.71209995775,1624.1708000306971,True,95,is.png,iceland,0.250390625
11,74618.62659995677,982.6153999892995,False,153,pg.png,papua new guinea,0.3
12,83776.84720000252,4397.369899961632,True,58,fi.png,finland,0.349609375
13,91412.36580000259,2135.792599990964,True,177,so.png,somalia,0.3
14,97771.8118999619,1666.2798000033945,True,113,lc.png,saint lucia,0.3
15,106356.65019997396,2843.602099979762,True,177,so.png,somalia,0.3
16,113853.84269995848,1454.9007000168785,True,113,lc.png,saint lucia,0.3
17,121211.6709999973,976.8385999486782,True,85,hr.png,croatia,0.250390625
18,125943.72749998001,14219.828100001905,False,183,sz.png,eswatini,0.349609375
19,142461.528899963,1204.6585000352934,True,58,fi.png,finland,0.30000000000000004
20,146931.53000000166,1304.130099946633,False,153,pg.png,papua new guinea,0.349609375
21,158945.2066999511,3209.5021000131965,True,177,so.png,somalia,0.349609375
22,168380.12009998783,1900.6948999594897,True,113,lc.png,saint lucia,0.250390625
23,175990.8172999858,1248.0977000086568,True,183,sz.png,eswatini,0.30000000000000004
24,181519.37539997743,1774.748699972406,True,19,bi.png,burundi,0.3
25,188455.4454999743,1505.0042999791913,True,153,pg.png,papua new guinea,0.34921875
26,197460.10430000024,1173.042299982626,True,19,bi.png,burundi,0.3
27,202336.1237999634,1687.9022000357509,True,177,so.png,somalia,0.34687500000000004
28,208009.28659999045,7818.222699977923,True,187,tj.png,tajikistan,0.3
29,222232.9889999819,2194.6209999732673,True,25,bt.png,bhutan,0.3
30,228880.42509998195,2637.7512000035495,True,187,tj.png,tajikistan,0.3
31,241358.1245999667,2188.695600023493,False,25,bt.png,bhutan,0.3
32,247008.64319998072,1776.2417999911122,True,3,al.png,albania,0.3
33,252860.82269996405,1956.819600018207,True,19,bi.png,burundi,0.250390625
34,259403.83949998068,4969.901799981017,False,3,al.png,albania,0.3
35,266670.8949999884,1818.6901999870315,True,139,my.png,malaysia,0.3
36,274212.7017999883,1554.438199964352,True,126,mg.png,madagascar,0.3
37,281801.2818999705,1633.6195000330918,True,139,my.png,malaysia,0.3
38,287970.38659994723,8286.646500055213,False,126,mg.png,madagascar,0.3
39,298552.5866999524,2067.899900022894,False,187,tj.png,tajikistan,0.349609375
40,308988.56420000084,2351.1927999788895,True,153,pg.png,papua new guinea,0.326171875
41,325126.14469998516,1361.4401000086218,True,25,bt.png,bhutan,0.250390625
42,331691.5534999571,1321.4047999936156,False,3,al.png,albania,0.349609375
43,336692.223799997,1341.9552999548614,True,177,so.png,somalia,0.2972656250000001
44,342140.9372999915,999.6741999639198,True,139,my.png,malaysia,0.250390625
45,347342.98560000025,5230.030199978501,False,126,mg.png,madagascar,0.349609375
46,357954.590999987,1932.8280999907292,False,187,tj.png,tajikistan,0.3984375
47,365204.3339999509,1211.6964000160806,True,58,fi.png,finland,0.2503906250000001
48,370242.67399997916,1084.2539999866858,True,3,al.png,albania,0.34921875
49,375279.075599974,2655.7642000261694,True,75,gl.png,greenland,0.3
50,385213.0600999808,1745.5324999755248,True,187,tj.png,tajikistan,0.398046875
51,393766.63859997643,1523.2681999914348,True,75,gl.png,greenland,0.3
52,400427.22529999446,2215.0523999589495,True,126,mg.png,madagascar,0.34921875
53,407732.6622999972,1538.3581999922171,True,95,is.png,iceland,0.20078125
54,412631.2427999801,1516.6640999959782,True,186,th.png,thailand,0.3
55,419193.4958999627,1785.6455000001006,True,44,cz.png,czechia,0.3
56,427379.98729996616,1130.5085000349209,True,186,th.png,thailand,0.3
57,432044.07409997657,2128.08330002008,True,44,cz.png,czechia,0.3
58,441204.63069999823,1365.6468999688514,True,183,sz.png,eswatini,0.2503906250000001
59,446713.4480999666,1224.4618000113405,True,75,gl.png,greenland,0.250390625
60,452621.77639995934,5033.939499990083,True,187,tj.png,tajikistan,0.3984375
61,463184.1761999531,1020.9055000450462,True,3,al.png,albania,0.29960937500000007
62,468505.9697999968,1545.9283999516629,True,10,aw.png,aruba,0.3
63,475416.7156999465,1588.7772000278346,True,129,mm.png,myanmar,0.3
64,485361.31249996834,1360.6205999967642,True,10,aw.png,aruba,0.3
65,490960.19559999695,2048.783599981107,True,129,mm.png,myanmar,0.3
66,497561.59459997434,1321.4231000165455,True,186,th.png,thailand,0.250390625
67,502533.5032999865,3807.4795000138693,True,44,cz.png,czechia,0.349609375
68,510621.7249999754,2396.7159999883734,True,126,mg.png,madagascar,0.33710937500000004
69,520046.6666999855,1053.6121999612078,True,85,hr.png,croatia,0.20078125
70,524994.8040999589,2089.9447000119835,True,153,pg.png,papua new guinea,0.32421875
71,535711.8837999878,1645.5034000100568,True,113,lc.png,saint lucia,0.20078125
72,542504.1311999667,1129.2013000347652,True,10,aw.png,aruba,0.250390625
73,548679.6657999512,1348.0060000438243,True,44,cz.png,czechia,0.30000000000000004
74,553925.5331999739,1120.9345000097528,True,129,mm.png,myanmar,0.250390625
75,559936.1369999824,1532.5617999769747,True,187,tj.png,tajikistan,0.398046875
76,569465.2738999575,1335.7222999911755,True,197,ua.png,ukraine,0.3
77,580001.6182999825,1493.0890999967232,True,55,er.png,eritrea,0.3
78,588487.0567999897,1482.8647999675013,True,197,ua.png,ukraine,0.3
79,594098.5108999885,9776.463899994269,False,55,er.png,eritrea,0.3
80,606192.2311999951,3610.4688000050373,True,19,bi.png,burundi,0.29999999999999993
81,614654.2305999901,1922.7637999574654,True,116,lr.png,liberia,0.3
82,624119.0009999555,1514.1255999915302,True,63,ga.png,gabon,0.3
83,632491.1828999757,2051.84879997978,True,116,lr.png,liberia,0.3
84,639159.9713999894,2019.127000006847,True,63,ga.png,gabon,0.3
85,644991.150399961,1263.8167000259273,True,197,ua.png,ukraine,0.250390625
86,650113.4760999703,4512.914200022351,True,55,er.png,eritrea,0.349609375
87,659788.5087999748,2011.120499984827,True,187,tj.png,tajikistan,0.35468750000000004
88,667921.9761999557,1450.7000000448897,True,17,bg.png,bulgaria,0.3
89,675187.4489999609,1769.2053000209853,True,126,mg.png,madagascar,0.3304687500000001
90,683116.0710999975,3501.4737999881618,False,17,bg.png,bulgaria,0.3
91,688910.1048999582,1182.2558999992907,True,116,lr.png,liberia,0.250390625
92,693986.6423999774,1694.5628999965265,True,63,ga.png,gabon,0.250390625
93,699574.8304000008,1968.8583999522962,True,55,er.png,eritrea,0.34921875
94,705990.9934999887,6628.551699977834,False,139,my.png,malaysia,0.29999999999999993
95,714911.6535999929,1105.7959999889135,True,19,bi.png,burundi,0.250390625
96,720885.3358999477,1337.455500033684,True,25,bt.png,bhutan,0.20078125
97,726169.5102999802,1481.6417999682017,True,177,so.png,somalia,0.25312500000000016
98,731170.519199979,1768.295100016985,True,137,mw.png,malawi,0.3
99,738662.2050000005,inf,True,17,bg.png,bulgaria,0.349609375
100,772618.3840999729,6059.855800005607,False,137,mw.png,malawi,0.3
101,780960.7159000007,1236.5521999890916,True,17,bg.png,bulgaria,0.34921875
102,785865.5071999528,1161.0510000027716,True,153,pg.png,papua new guinea,0.289453125
103,793131.2534000026,4589.972499990836,True,55,er.png,eritrea,0.398828125
104,802590.2656999533,1426.431700005196,True,44,cz.png,czechia,0.2503906250000001
105,808083.7723999866,978.6789999925531,True,139,my.png,malaysia,0.250390625
106,812817.1244999976,1172.3613999783993,True,75,gl.png,greenland,0.20078125
107,817668.5069999658,1806.7981000058353,True,132,mq.png,martinique,0.3
108,827346.2458999711,2486.4445999846794,False,137,mw.png,malawi,0.337890625
109,833936.6390999639,5602.8387999976985,False,132,mq.png,martinique,0.3
110,841838.4555999655,2618.0051999981515,True,55,er.png,eritrea,0.41875000000000007
111,848795.7990999566,1153.8316000369377,True,186,th.png,thailand,0.20078125
112,854588.809799985,1252.3117999662645,True,3,al.png,albania,0.2500000000000001
113,859302.5514999754,1738.9170000096783,True,151,pa.png,panama,0.3
114,865286.4737999626,1258.704799984116,True,172,si.png,slovenia,0.3
115,872355.4712999612,5238.083000003826,True,151,pa.png,panama,0.3
116,881210.3648999473,2721.2472000392154,True,172,si.png,slovenia,0.3
117,889611.8788999738,1202.74530001916,True,17,bg.png,bulgaria,0.29960937500000007
118,894437.8530999529,3004.8358000349253,False,132,mq.png,martinique,0.349609375
119,906299.06629998,1290.3199999709614,False,55,er.png,eritrea,0.41914062500000004
120,911360.7793999836,4617.678700014949,False,137,mw.png,malawi,0.38749999999999996
121,926483.1287999987,1446.7925999779254,True,10,aw.png,aruba,0.20078125
122,931568.3021000004,1424.4055000017397,True,151,pa.png,panama,0.250390625
123,936364.0106999665,3082.044299982954,True,129,mm.png,myanmar,0.275
124,944267.1364999842,1320.963700010907,True,172,si.png,slovenia,0.250390625
125,949629.9552999553,1653.12160004396,True,132,mq.png,martinique,0.34921875
126,956075.2594999503,1610.0083000492305,False,137,mw.png,malawi,0.416015625
127,962309.7593999701,2627.4153999984264,True,126,mg.png,madagascar,0.3324218750000001
128,970852.7297999826,2457.3119999840856,True,55,er.png,eritrea,0.421875
129,977544.891699974,1644.723100005649,True,71,gf.png,french guiana,0.3
130,994686.0993999871,2132.334199966863,True,137,mw.png,malawi,0.415625
131,1010740.833399992,1850.2550999983214,True,71,gf.png,french guiana,0.3
132,1019895.0141999521,1178.3916000276804,True,197,ua.png,ukraine,0.20078125
133,1026098.9778999938,1719.4646999705583,True,187,tj.png,tajikistan,0.3167968750000001
134,1034020.5929999938,2457.4650999857113,True,63,ga.png,gabon,0.20078125
135,1042682.4158999952,3758.531600004062,True,132,mq.png,martinique,0.398828125
136,1051735.6185999815,1097.2864999785088,False,116,lr.png,liberia,0.29999999999999993
137,1057817.7229999565,3794.4264000398107,True,55,er.png,eritrea,0.443359375
138,1065404.3768999982,1668.649800005369,True,137,mw.png,malawi,0.41523437500000004
139,1070619.0161999548,1913.1430000416003,True,71,gf.png,french guiana,0.250390625
140,1079385.6023999979,1544.650099996943,True,132,mq.png,martinique,0.3984375
141,1086469.9138999567,1424.371900036931,True,149,nz.png,new zealand,0.3
142,1095546.5982999885,1365.2476000133902,True,54,eh.png,western sahara,0.3
143,1106139.3513999647,1477.0825000014156,True,149,nz.png,new zealand,0.3
144,1112060.9521999722,1923.208500025794,True,54,eh.png,western sahara,0.3
145,1121042.0846999623,1136.3377000088803,True,55,er.png,eritrea,0.421875
146,1126356.5556999529,inf,True,156,pl.png,poland,0.3
147,1139180.1386000006,1186.792099964805,True,138,mx.png,mexico,0.3
148,1145788.3498999872,945.9620999987237,True,156,pl.png,poland,0.3
149,1149995.665399998,1289.4894999917597,True,138,mx.png,mexico,0.3
150,1154898.3009999502,1200.893500004895,True,137,mw.png,malawi,0.390625
151,1164123.7828999874,1311.7073999601416,True,149,nz.png,new zealand,0.250390625
152,1172463.1776000024,2026.7133999732323,True,132,mq.png,martinique,0.349609375
153,1179757.7073999564,5796.977600024547,True,54,eh.png,western sahara,0.349609375
154,1191840.6987999915,1935.8719000010751,True,116,lr.png,liberia,0.250390625
155,1198014.3679999746,2199.2670000181533,True,129,mm.png,myanmar,0.24726562500000002
156,1204120.1529999962,848.0353999766521,True,156,pl.png,poland,0.250390625
157,1208153.3521999954,941.5029999800026,True,138,mx.png,mexico,0.250390625
158,1212697.5643999758,1934.6241999883205,True,126,mg.png,madagascar,0.3187500000000001
159,1220099.1680999869,3250.0119999749586,True,54,eh.png,western sahara,0.39921874999999996
160,1230653.243299981,1952.4310000124387,True,174,sl.png,sierra leone,0.3
161,1239907.4838999659,1470.1406999956816,True,31,cf.png,central african republic,0.3
162,1253991.058399959,1821.1851000087336,True,174,sl.png,sierra leone,0.3
163,1265607.1849999717,1354.7745000105351,True,31,cf.png,central african republic,0.3
164,1277650.2700999845,1668.1005000136793,True,54,eh.png,western sahara,0.398828125
165,1285865.4611999518,1483.500400034245,True,55,er.png,eritrea,0.421484375
166,1291477.1009999677,2567.093499994371,True,151,pa.png,panama,0.2515625
167,1298174.6789999888,1181.775800010655,True,17,bg.png,bulgaria,0.2500000000000001
168,1302965.9047999885,1291.4207999710925,True,172,si.png,slovenia,0.20078125
169,1309196.1891999817,3007.709099969361,True,174,sl.png,sierra leone,0.349609375
170,1317401.3355999487,1211.6978000267409,True,31,cf.png,central african republic,0.250390625
171,1326727.453599975,1487.0939999818802,True,167,sb.png,solomon islands,0.3
172,1334970.0537999743,1360.3896999848075,True,54,eh.png,western sahara,0.34921875
173,1341997.5666999817,999.3000999675132,True,167,sb.png,solomon islands,0.3
174,1350683.2426000037,2417.9125999799,True,137,mw.png,malawi,0.37773437499999996
175,1356889.975099999,1418.9418999594636,True,174,sl.png,sierra leone,0.30000000000000004
176,1362805.2655999782,2001.3715000241064,True,127,mk.png,north macedonia,0.3
177,1373718.8125999528,1388.8887000503018,True,117,ls.png,lesotho,0.3
178,1381561.1106999568,1463.8426000019535,False,127,mk.png,north macedonia,0.3
179,1389272.044799989,3393.6961999861524,False,117,ls.png,lesotho,0.3
180,1397528.123600001,6725.4650999675505,True,167,sb.png,solomon islands,0.349609375
181,1411422.0917999628,1094.1055000294,True,55,er.png,eritrea,0.37187500000000007
182,1416339.3177999533,1328.4293000469916,True,58,fi.png,finland,0.2007812500000001
183,1423390.8314,1182.377599994652,True,65,gb-eng.png,england,0.3
184,1429242.9610999534,2200.8954000193626,True,72,gg.png,guernsey,0.3
185,1438896.6272999533,1155.8903999975882,True,65,gb-eng.png,england,0.3
186,1443314.084899961,1180.9011999866925,True,72,gg.png,guernsey,0.3
187,1452025.0130999484,1256.2833999982104,True,127,mk.png,north macedonia,0.250390625
188,1460163.1762000034,1123.4196999575943,True,167,sb.png,solomon islands,0.30000000000000004
189,1466437.3758999864,10705.965499975719,False,117,ls.png,lesotho,0.349609375
190,1479696.945099975,5859.361700015143,False,71,gf.png,french guiana,0.25078124999999996
191,1487844.641499978,1505.2454000106081,True,132,mq.png,martinique,0.30000000000000004
192,1496874.77939995,955.5855000508018,True,65,gb-eng.png,england,0.250390625
193,1501108.3828999544,8900.318100000732,False,72,gg.png,guernsey,0.349609375
194,1512348.3757999493,2473.2824000529945,True,117,ls.png,lesotho,0.38671875
195,1519994.0853999578,1655.3853999939747,True,149,nz.png,new zealand,0.20078125
196,1525854.4227999519,1508.756200026255,True,131,mo.png,macao,0.3
197,1532159.6575999865,993.4265000047162,True,138,mx.png,mexico,0.20078125
198,1537723.661499971,1194.420000014361,True,131,mo.png,macao,0.3
199,1542436.6575999884,1201.3751000049524,True,72,gg.png,guernsey,0.30000000000000004
200,1549966.215399967,1637.8742000088096,True,117,ls.png,lesotho,0.386328125
201,1556214.8739999975,1387.9826999618672,True,76,gm.png,gambia,0.3
202,1561294.7183999931,991.6884999838658,True,156,pl.png,poland,0.20078125
203,1565689.34859999,2423.6060999683104,True,76,gm.png,gambia,0.3
204,1573632.2960999678,1772.4879999877885,True,54,eh.png,western sahara,0.29960937500000007
205,1584000.9327000007,1455.577299988363,True,137,mw.png,malawi,0.328125
206,1597826.02389995,1889.613300038036,True,131,mo.png,macao,0.250390625
207,1603812.3563999543,1563.6607000487857,True,53,eg.png,egypt,0.3
208,1609686.4709999645,2600.0290000229143,True,174,sl.png,sierra leone,0.30585937500000004
209,1618365.092299995,1272.1778999548405,True,53,eg.png,egypt,0.3
210,1623457.333199971,1286.8928000098094,True,76,gm.png,gambia,0.250390625
211,1628414.8186999955,1095.5765999970026,False,117,ls.png,lesotho,0.38828125
212,1634498.1406999868,1429.9569000140764,True,183,sz.png,eswatini,0.2007812500000001
213,1640378.8652999792,1563.6569000198506,True,179,ss.png,south sudan,0.3
214,1647771.988899971,1861.194199998863,True,42,cv.png,cabo verde,0.3
215,1656365.1476999512,1552.9010000173002,True,179,ss.png,south sudan,0.3
216,1662432.607099996,2162.527799955569,False,42,cv.png,cabo verde,0.3
217,1672063.2394999848,1138.9090999728069,True,53,eg.png,egypt,0.250390625
218,1676586.598099966,1381.8282000138424,True,37,cm.png,cameroon,0.3
219,1684645.0218999526,6483.492900035344,True,31,cf.png,central african republic,0.25078124999999996
220,1700496.8512999476,5846.134899999015,False,37,cm.png,cameroon,0.3
221,1708637.5440999982,1666.399099980481,True,179,ss.png,south sudan,0.250390625
222,1714541.3350999588,3963.463900028728,True,167,sb.png,solomon islands,0.349609375
223,1724099.4469999569,2410.9223000123166,False,42,cv.png,cabo verde,0.349609375
224,1728806.384800002,2086.03129995754,True,117,ls.png,lesotho,0.363671875
225,1735459.445399989,1244.5215999614447,True,153,pg.png,papua new guinea,0.23984375
226,1743359.202499967,1573.7233000108972,True,126,mg.png,madagascar,0.2855468750000001
227,1750265.3960000025,1322.2612999961711,True,48,dm.png,dominica,0.3
228,1756109.5774999703,3792.7817000309005,True,37,cm.png,cameroon,0.349609375
229,1763878.3011999913,1333.7661999976262,True,48,dm.png,dominica,0.3
230,1769331.7030000035,1357.09029994905,True,42,cv.png,cabo verde,0.34921875
231,1775289.1558999545,1590.812900045421,True,167,sb.png,solomon islands,0.30000000000000004
232,1783067.5224000006,2687.900799966883,False,72,gg.png,guernsey,0.349609375
233,1798777.8031999478,1875.3453000099398,True,151,pa.png,panama,0.20195312500000004
234,1804187.3090000008,1656.1357000027783,True,37,cm.png,cameroon,0.34921875
235,1809515.6826999737,1533.6791999870911,True,19,bi.png,burundi,0.20078125
236,1816800.9124999517,1172.370900050737,True,48,dm.png,dominica,0.250390625
237,1822462.6005999744,1111.5351999760605,True,127,mk.png,north macedonia,0.20078125
238,1830452.3128999863,2427.72719997447,True,46,dj.png,djibouti,0.3
239,1839875.6125999498,948.2790000038221,True,65,gb-eng.png,england,0.20078125
240,1846423.542000004,3033.9366999687627,False,46,dj.png,djibouti,0.3
241,1858119.459599955,1913.9107000082731,True,72,gg.png,guernsey,0.30000000000000004
242,1869274.8944999767,1939.58449998172,False,42,cv.png,cabo verde,0.398828125
243,1877467.8011999931,2085.129599960055,True,174,sl.png,sierra leone,0.27031250000000007
244,1885228.9085999946,1860.379199963063,True,64,gb.png,uk,0.3
245,1890620.857999951,1353.1496000359766,True,139,my.png,malaysia,0.20078125
246,1896077.823599975,1915.5413000262342,True,64,gb.png,uk,0.3
247,1900671.0983999656,7569.827500032261,False,46,dj.png,djibouti,0.349609375
248,1910533.9011999895,1664.4178999704309,True,42,cv.png,cabo verde,0.3984375
249,1916337.9001999856,1482.3059999616817,True,37,cm.png,cameroon,0.326171875
250,1922912.9000999965,1094.0700999926776,True,92,in.png,india,0.3
251,1926884.3332999968,10283.808999985922,True,131,mo.png,macao,0.29999999999999993
252,1941297.5138999755,958.9879999984987,True,92,in.png,india,0.3
253,1945153.2496999716,1523.6928000231273,True,46,dj.png,djibouti,0.34921875
254,1950793.8295999775,1092.9705000016838,True,64,gb.png,uk,0.250390625
255,1954564.4681999693,2628.861600009259,True,117,ls.png,lesotho,0.36406249999999996
256,1960937.2866999474,1851.120000006631,True,76,gm.png,gambia,0.20078125
257,1967038.1556999637,1596.6342000174336,True,44,cz.png,czechia,0.2007812500000001
258,1972300.8776999777,1862.8053999855183,True,187,tj.png,tajikistan,0.2851562500000001
259,1980459.5059999847,1278.6927999695763,True,43,cy.png,cyprus,0.3
260,1986077.7393999742,1440.9409000072628,True,42,cv.png,cabo verde,0.34882812500000004
261,1992110.262299946,1017.8862000466324,True,43,cy.png,cyprus,0.3
262,1997588.6131000007,991.4549999521114,True,92,in.png,india,0.250390625
263,2001448.0461999774,1216.28839999903,True,55,er.png,eritrea,0.3222656250000001
264,2009330.3091999842,1393.565899983514,True,53,eg.png,egypt,0.20078125
265,2014309.119499987,inf,True,6,aq.png,antarctica,0.3
266,2032804.4858999783,1320.5295000225306,True,131,mo.png,macao,0.250390625
267,2038299.3408999755,1527.2450000047684,True,6,aq.png,antarctica,0.3
268,2044944.4720000029,1653.0933999456465,True,46,dj.png,djibouti,0.29960937500000007
269,2050461.6289999685,1264.2154000350274,True,43,cy.png,cyprus,0.250390625
270,2055733.6457999772,6180.362700019032,False,71,gf.png,french guiana,0.3003906249999999
271,2064208.779699984,1639.1622999799438,True,179,ss.png,south sudan,0.20078125
272,2069958.704299992,1389.6513999789022,True,93,iq.png,iraq,0.3
273,2075691.4945999742,1121.6267999843694,True,164,ru.png,russia,0.3
274,2080272.2556999652,1351.7395000089891,True,93,iq.png,iraq,0.3
275,2085217.232999974,1244.3287000060081,True,164,ru.png,russia,0.3
276,2089621.3047999772,1387.7267999923788,True,6,aq.png,antarctica,0.250390625
277,2096174.1494999733,1386.662399978377,True,121,ly.png,libya,0.3
278,2102447.6826000027,1367.696099972818,False,34,ci.png,cote d'ivoire,0.3
279,2124168.1008999585,6703.27769999858,True,121,ly.png,libya,0.3
280,2135166.747799958,inf,False,34,ci.png,cote d'ivoire,0.3
281,2159313.6348999687,4623.742900032084,True,93,iq.png,iraq,0.349609375
282,2169840.9573999816,1196.3588999933563,True,164,ru.png,russia,0.250390625
283,2174195.273499994,6844.791999959853,False,37,cm.png,cameroon,0.37578124999999996
284,2183329.601299949,2192.4088000087067,False,71,gf.png,french guiana,0.31718749999999996
285,2197127.09059997,3526.79909998551,True,121,ly.png,libya,0.349609375
286,2204956.1080999556,1099.5044000446796,False,34,ci.png,cote d'ivoire,0.349609375
287,2215914.5882999874,4431.014699977823,True,93,iq.png,iraq,0.38749999999999996
288,2224153.360700002,1422.9511999874376,False,117,ls.png,lesotho,0.371484375
289,2230367.735399981,1280.3467999910936,True,48,dm.png,dominica,0.20078125
290,2237477.5502999546,1341.4234000374563,True,37,cm.png,cameroon,0.326171875
291,2244774.6268999763,1283.3891999907792,True,121,ly.png,libya,0.34921875
292,2249705.20159998,1410.1728000096045,False,34,ci.png,cote d'ivoire,0.396875
293,2263765.155299974,2798.948700015899,True,93,iq.png,iraq,0.40898437499999996
294,2270495.0306999963,2038.164899975527,True,31,cf.png,central african republic,0.21289062499999997
295,2286188.747499953,995.7555000437424,False,34,ci.png,cote d'ivoire,0.39726562499999996
296,2297620.60819997,2586.980100022629,True,64,gb.png,uk,0.2515625
297,2302955.687999958,2276.496800011955,True,42,cv.png,cabo verde,0.31171875000000004
298,2309868.3534999727,1179.2766000144184,True,93,iq.png,iraq,0.3843749999999999
299,2314167.4116999493,1442.1148000401445,True,116,lr.png,liberia,0.20078125
300,2320727.9187999666,7350.91590002412,False,129,mm.png,myanmar,0.271875
301,2330373.392999987,1443.822100001853,False,167,sb.png,solomon islands,0.349609375
302,2337727.3369999602,1297.791999997571,True,177,so.png,somalia,0.20351562500000017
303,2343273.0285999714,1183.0906000104733,True,121,ly.png,libya,0.34882812500000004
304,2349296.5480999555,2642.4291000002995,True,71,gf.png,french guiana,0.3222656249999999
305,2360088.7713999837,1302.6795000187121,False,34,ci.png,cote d'ivoire,0.4468749999999999
306,2378487.3917999794,1414.4300000043586,True,92,in.png,india,0.20078125
307,2382894.1406999948,1821.8138999654911,False,34,ci.png,cote d'ivoire,0.4839843749999999
308,2397118.6772999936,3190.030800004024,True,117,ls.png,lesotho,0.41015625
309,2405530.3786000004,1183.6542999953963,True,167,sb.png,solomon islands,0.34921875

