trial,start_time,rt,correct,fact_id,question,answer,alpha
1,15257.369701997959,1123.8306159939384,True,124,mc.png,monaco,0.3
2,19860.382246988593,788.9323990093544,True,124,mc.png,monaco,0.3
3,24297.763857000973,958.3377189992461,True,35,ci.png,ivory coast,0.3
4,29294.996276992606,946.804206003435,True,35,ci.png,ivory coast,0.3
5,34292.64451299969,992.8132119966904,True,153,pe.png,peru,0.3
6,38086.34549099952,831.563682993874,True,99,jm.png,jamaica,0.3
7,42482.57315199589,1136.0637879988644,True,153,pe.png,peru,0.3
8,46517.93892298883,702.3623390123248,True,99,jm.png,jamaica,0.3
9,51165.86350399302,1233.0463560065255,True,56,er.png,eritrea,0.3
10,56225.38582899142,990.565461004735,True,120,lu.png,luxembourg,0.3
11,61441.974071989534,811.2858850072371,True,56,er.png,eritrea,0.3
12,65979.68259199115,775.0265080103418,True,120,lu.png,luxembourg,0.3
13,71013.72214499861,1028.2036689895904,True,124,mc.png,monaco,0.250390625
14,75722.91061699798,1025.7480159925763,True,35,ci.png,ivory coast,0.250390625
15,80798.88884400134,1433.5216069885064,True,190,tm.png,turkmenistan,0.3
16,88669.22932300076,1431.9862049887888,True,153,pe.png,peru,0.250390625
17,93659.83454999514,927.3877880041255,True,190,tm.png,turkmenistan,0.3
18,98898.41444700141,901.549349000561,True,99,jm.png,jamaica,0.250390625
19,103161.64342800039,1157.2203389951028,True,89,id.png,indonesia,0.3
20,108281.00548499788,989.7621249983786,True,138,mw.png,malawi,0.3
21,114035.47994499968,2546.8947740009753,True,89,id.png,indonesia,0.3
22,120092.45436100173,1022.9129319923231,True,138,mw.png,malawi,0.3
23,124555.79816400132,866.2665429874323,True,56,er.png,eritrea,0.250390625
24,129727.1247030003,821.7656079941662,True,120,lu.png,luxembourg,0.250390625
25,134504.72621399967,1301.9906169938622,True,34,ch.png,switzerland,0.3
26,139878.3655139996,1516.3942209910601,True,85,hn.png,honduras,0.3
27,145620.74918799044,924.7825100028422,True,34,ch.png,switzerland,0.3
28,151166.40437599563,985.9517769946251,True,85,hn.png,honduras,0.3
29,155719.1990089923,1163.1942210078705,True,190,tm.png,turkmenistan,0.250390625
30,161040.51103899837,1360.6081859907135,True,78,gn.png,guinea,0.3
31,165651.7118729971,2040.8280970004853,True,89,id.png,indonesia,0.25664062499999996
32,171094.37189799792,1742.0231199939735,True,78,gn.png,guinea,0.3
33,176285.97581399663,980.9237760055112,True,138,mw.png,malawi,0.250390625
34,180575.2006549883,1029.8611860052915,True,97,it.png,italy,0.3
35,184673.2062499941,1665.5908740067389,True,200,us.png,united states of america,0.3
36,194302.06276899844,1287.607157995808,True,97,it.png,italy,0.3
37,199422.3017990007,1195.011613992392,True,200,us.png,united states of america,0.3
38,206131.10586898983,963.2296960044187,True,34,ch.png,switzerland,0.250390625
39,211628.7154469901,987.2586970013799,True,85,hn.png,honduras,0.250390625
40,216430.90960299014,1199.061437000637,True,62,fo.png,faroe islands,0.3
41,222123.14240299747,1356.5669980016537,True,78,gn.png,guinea,0.250390625
42,226569.83908599068,830.820240007597,True,62,fo.png,faroe islands,0.3
43,231221.1332589941,1111.6193699999712,True,183,sy.png,syria,0.3
44,235367.3277499911,1032.3356169974431,True,93,in.png,india,0.3
45,239339.13458698953,831.5564950025873,True,183,sy.png,syria,0.3
46,243161.85481699358,724.3071690027136,True,93,in.png,india,0.3
47,247093.1954819971,1139.0770159923704,True,97,it.png,italy,0.250390625
48,251349.72898599517,973.5126220039092,True,200,us.png,united states of america,0.250390625
49,258289.26768898964,1016.8707280099625,True,119,lt.png,lithuania,0.3
50,264250.04413499846,1474.0430239908164,True,86,hr.png,croatia,0.3
51,272985.75091599196,1161.0129850014346,True,119,lt.png,lithuania,0.3
52,277900.7420729904,inf,True,86,hr.png,croatia,0.3
53,282742.27244198846,795.303094011615,True,62,fo.png,faroe islands,0.250390625
54,287686.1019189964,995.1377469988074,True,183,sy.png,syria,0.250390625
55,291809.6489849995,980.5804689967772,True,93,in.png,india,0.250390625
56,295732.08675399655,1315.1567049935693,True,79,gq.png,equatorial guinea,0.3
57,303568.7874229916,1210.1809040032094,True,104,kh.png,cambodia,0.3
58,309261.0728939908,902.6028329972178,True,79,gq.png,equatorial guinea,0.3
59,315227.4871869886,1243.2217970053898,True,104,kh.png,cambodia,0.3
60,319788.73798299173,1239.8371120070806,True,161,py.png,paraguay,0.3
61,324626.6095889878,1325.36223900388,True,119,lt.png,lithuania,0.250390625
62,329525.4019579879,1037.8663490118925,True,161,py.png,paraguay,0.3
63,334082.0082049904,989.983650011709,True,86,hr.png,croatia,0.250390625
64,338342.46676899784,1144.5140029973118,True,15,bd.png,bangladesh,0.3
65,344778.2411590015,983.896741992794,True,63,fr.png,france,0.3
66,349203.54530499026,880.2680740045616,True,15,bd.png,bangladesh,0.3
67,355391.80184699944,586.1134049919201,True,63,fr.png,france,0.3
68,359202.09791799425,1759.6140749956248,True,124,mc.png,monaco,0.20078125
69,364301.87129200203,1157.6615759986453,True,79,gq.png,equatorial guinea,0.250390625
70,372095.9758120007,1020.6664859870216,True,104,kh.png,cambodia,0.250390625
71,376551.96959098976,1395.4694470012328,True,35,ci.png,ivory coast,0.20078125
72,382273.6165489914,974.5229910040507,True,161,py.png,paraguay,0.250390625
73,386818.38579199393,1152.6190940057859,True,212,zw.png,zimbabwe,0.3
74,392257.8878249915,1446.437008009525,True,153,pe.png,peru,0.20078125
75,396583.62350799143,1379.4052070006728,True,212,zw.png,zimbabwe,0.3
76,401274.70881798945,972.1359460090753,True,15,bd.png,bangladesh,0.250390625
77,406601.1529929965,861.4557730033994,True,63,fr.png,france,0.250390625
78,410773.9524399949,inf,True,99,jm.png,jamaica,0.29999999999999993
79,415989.1949439916,1104.6565739961807,True,162,qa.png,qatar,0.3
80,420568.1963109964,1074.2245440051192,True,24,br.png,brazil,0.3
81,425034.8465799907,inf,True,162,qa.png,qatar,0.3
82,430180.9997269884,1041.1533880105708,True,24,br.png,brazil,0.3
83,434710.8212039893,1185.1979690109147,True,33,cg.png,congo,0.3
84,438862.5885149959,1052.660608998849,True,154,pg.png,papua new guinea,0.3
85,444794.0963919973,3666.3994349946734,True,33,cg.png,congo,0.3
86,451360.86338300083,2418.431216996396,True,154,pg.png,papua new guinea,0.3
87,458236.68600799283,1346.8049910006812,True,212,zw.png,zimbabwe,0.250390625
88,463292.06624699873,4071.71221000317,False,89,id.png,indonesia,0.3062499999999999
89,471129.57606899727,1144.647929992061,True,56,er.png,eritrea,0.20078125
90,476411.0245329939,1071.099270004197,True,162,qa.png,qatar,0.250390625
91,480732.84929199144,1186.7185900046024,True,120,lu.png,luxembourg,0.20078125
92,485761.0387189925,985.6792899954598,True,24,br.png,brazil,0.250390625
93,490170.480544999,1167.4382380006136,True,190,tm.png,turkmenistan,0.20078125
94,495914.17108599853,1737.4258619965985,True,33,cg.png,congo,0.250390625
95,500580.55264598806,1031.9148670096183,True,154,pg.png,papua new guinea,0.250390625
96,506169.7561119945,947.6138440077193,True,138,mw.png,malawi,0.20078125
97,510215.44180699857,994.2033919942332,True,99,jm.png,jamaica,0.250390625
98,514428.18008799804,1203.1642549991375,True,60,fj.png,fiji,0.3
99,518527.39586599637,1050.730893999571,True,155,ph.png,philippines,0.3
100,526159.9263669923,1020.7453210023232,True,60,fj.png,fiji,0.3
101,530087.6039409923,1264.3175069970312,True,155,ph.png,philippines,0.3
102,535818.7558659993,932.9147029930027,True,34,ch.png,switzerland,0.20078125
103,541105.4570470005,11430.185189994518,True,78,gn.png,guinea,0.29999999999999993
104,557044.874824991,1028.1104760069866,True,85,hn.png,honduras,0.20078125
105,561921.759289995,2042.978169003618,True,89,id.png,indonesia,0.30585937499999993
106,567586.2602949928,1125.2568769996287,True,137,mv.png,maldives,0.3
107,572533.8777269935,1397.548438006197,True,23,bo.png,bolivia,0.3
108,577772.421939997,1171.704715990927,True,137,mv.png,maldives,0.3
109,582621.082076992,1048.1217830092646,True,23,bo.png,bolivia,0.3
110,587567.6995179965,1468.1908359925728,True,60,fj.png,fiji,0.250390625
111,592080.9105389926,1178.9314640045632,True,155,ph.png,philippines,0.250390625
112,597765.8292799897,1347.9847200069344,True,97,it.png,italy,0.20078125
113,602263.7315559987,989.1678939893609,True,200,us.png,united states of america,0.20078125
114,608928.0185599928,1102.6004750019638,True,183,sy.png,syria,0.20078125
115,613005.4911179905,936.298604006879,True,93,in.png,india,0.20078125
116,617706.1812879983,1000.0598429905949,True,62,fo.png,faroe islands,0.20078125
117,622739.1461369989,1452.0841659978032,True,103,kg.png,kyrgyzstan,0.3
118,631648.7586339936,1007.2106410079869,True,137,mv.png,maldives,0.250390625
119,636259.449634992,958.568631001981,True,103,kg.png,kyrgyzstan,0.3
120,642381.0525669978,3770.7791220018407,True,23,bo.png,bolivia,0.349609375
121,649495.8772139944,1759.5126389933284,True,78,gn.png,guinea,0.250390625
122,654476.226312996,1281.966405993444,True,17,bf.png,burkina faso,0.3
123,660045.6092359964,1876.900361996377,True,119,lt.png,lithuania,0.20078125
124,666416.8176679959,1454.8444929969264,True,17,bf.png,burkina faso,0.3
125,672269.8612449894,1446.571723005036,True,86,hr.png,croatia,0.20078125
126,677154.9637589924,1323.8280969962943,True,189,tl.png,timor leste,0.3
127,682653.9571509929,2196.3608160003787,True,23,bo.png,bolivia,0.3375
128,688357.6550369908,871.3467620109441,True,189,tl.png,timor leste,0.3
129,693322.2395719931,1563.610138007789,True,103,kg.png,kyrgyzstan,0.250390625
130,699662.2227319895,1109.4799420097843,True,161,py.png,paraguay,0.20078125
131,704455.4672069935,1151.9229830009863,True,79,gq.png,equatorial guinea,0.20078125
132,710206.2042069883,924.3531620013528,True,104,kh.png,cambodia,0.20078125
133,716974.9641139933,1261.3561729958747,True,17,bf.png,burkina faso,0.250390625
134,722417.4223619921,1275.777825008845,True,15,bd.png,bangladesh,0.20078125
135,729175.8776929928,1613.2572180067655,True,63,fr.png,france,0.20078125
136,734009.9784969934,1640.8339360059472,True,52,ec.png,ecuador,0.3
137,739881.4960429881,949.3898970104055,True,189,tl.png,timor leste,0.250390625
138,744827.9328159988,2551.2089479889255,True,52,ec.png,ecuador,0.3
139,751025.4203579971,1038.4060439973837,True,170,sd.png,sudan,0.3
140,755842.3655709921,1292.214753004373,True,47,dj.png,djibouti,0.3
141,760590.7936579897,inf,False,170,sd.png,sudan,0.3
142,777761.6584259958,1166.7513019929174,True,47,dj.png,djibouti,0.3
143,782463.299030991,1176.1400899995351,True,212,zw.png,zimbabwe,0.20078125
144,787356.9958099979,1160.318661990459,True,162,qa.png,qatar,0.20078125
145,791769.2911499907,1900.6745220103767,True,89,id.png,indonesia,0.26328125
146,797091.9279369991,1026.161879999563,True,52,ec.png,ecuador,0.250390625
147,801541.8476990017,1409.7809939994477,True,23,bo.png,bolivia,0.324609375
148,806450.5027709965,975.0926749984501,True,24,br.png,brazil,0.20078125
149,811013.1687739922,969.3932110094465,True,170,sd.png,sudan,0.250390625
150,815544.5596299978,inf,True,33,cg.png,congo,0.29999999999999993
151,821864.6906929935,1209.7595359955449,True,173,si.png,slovenia,0.3
152,827140.4423729982,1472.654249999323,True,154,pg.png,papua new guinea,0.20078125
153,832946.3165670022,3392.54695699492,True,173,si.png,slovenia,0.3
154,839924.8316679877,1367.436036001891,True,47,dj.png,djibouti,0.250390625
155,844908.031243991,1180.02620000334,True,210,za.png,south africa,0.3
156,850146.6780619958,1375.4798409936484,True,209,ye.png,yemen,0.3
157,854852.9852259962,729.9431680003181,True,210,za.png,south africa,0.3
158,859969.2955529899,820.3817180037731,True,209,ye.png,yemen,0.3
159,864024.0716239932,1558.7688969972078,True,194,tt.png,trinidad and tobago,0.3
160,875073.7732650014,1498.7610209936975,True,94,iq.png,iraq,0.3
161,879967.7202530002,1246.0164779913612,True,194,tt.png,trinidad and tobago,0.3
162,887446.1534439906,1018.951788006234,True,94,iq.png,iraq,0.3
163,891783.7054439879,1041.438863001531,True,173,si.png,slovenia,0.250390625
164,896348.5885639966,1367.954881003243,True,121,lv.png,latvia,0.3
165,900987.7066869958,1296.3060320034856,True,13,ba.png,bosnia and herzegovina,0.3
166,908699.0135999949,1136.5384719974827,True,121,lv.png,latvia,0.3
167,913249.476625002,1032.2904359927634,True,13,ba.png,bosnia and herzegovina,0.3
168,920395.8136379952,2375.9607359970687,True,210,za.png,south africa,0.27460937500000004
169,927112.4879179988,1152.94480099692,True,209,ye.png,yemen,0.250390625
170,931455.5066949979,1285.1917649968527,True,33,cg.png,congo,0.29960937499999996
171,935750.7135899941,1776.7674939968856,True,194,tt.png,trinidad and tobago,0.250390625
172,944297.8439860017,918.1437799998093,True,94,iq.png,iraq,0.250390625
173,948359.9633409904,1240.9739240101771,True,60,fj.png,fiji,0.20078125
174,952611.5486819908,1292.5636959989788,True,155,ph.png,philippines,0.20078125
175,958129.7837039892,1028.003327010083,True,137,mv.png,maldives,0.20078125
176,963417.422278988,841.2756220059237,True,121,lv.png,latvia,0.250390625
177,967607.695216997,1137.6350490027107,True,13,ba.png,bosnia and herzegovina,0.250390625
178,974872.8736399935,1189.4288970070193,True,26,bt.png,bhutan,0.3
179,979261.8254749977,1101.3958859984996,True,54,eg.png,egypt,0.3
180,983831.4650329994,1011.6459959972417,True,26,bt.png,bhutan,0.3
181,987961.8447819958,811.3433520047693,True,54,eg.png,egypt,0.3
182,993331.014298994,1319.788912005606,True,122,ly.png,libya,0.3
183,998910.2859029954,1171.59878500388,True,23,bo.png,bolivia,0.275
184,1003694.533337999,898.0506249936298,True,122,ly.png,libya,0.3
185,1008089.0056619974,1026.4940960041713,True,158,ps.png,palestine,0.3
186,1013565.0157179916,1039.4503060088027,True,205,vn.png,vietnam,0.3
187,1017925.73842399,7789.366659009829,False,158,ps.png,palestine,0.3
188,1029892.705434002,963.5737229982624,True,205,vn.png,vietnam,0.3
189,1033968.5262540006,1047.593405994121,True,26,bt.png,bhutan,0.250390625
190,1038287.0155669953,1838.8757600041572,True,54,eg.png,egypt,0.250390625
191,1043623.1530889927,2357.690573000582,True,103,kg.png,kyrgyzstan,0.20078125
192,1051030.3082079918,1278.172537000617,True,17,bf.png,burkina faso,0.20078125
193,1056555.7420639961,859.6736049947795,True,122,ly.png,libya,0.250390625
194,1060743.761826001,1210.7795769986697,True,189,tl.png,timor leste,0.20078125
195,1065829.4734299998,1265.8708009985276,True,158,ps.png,palestine,0.250390625
196,1070630.1085379964,1123.3121039986145,True,174,sk.png,slovakia,0.3
197,1075728.45094699,916.711566999089,True,101,jp.png,japan,0.3
198,1079668.2889179937,1402.6788460034877,True,174,sk.png,slovakia,0.3
199,1084495.9197049902,1078.396487006219,True,101,jp.png,japan,0.3
200,1088549.6783949928,1031.450884998776,True,205,vn.png,vietnam,0.250390625
201,1092787.9569639917,1077.5901669985615,True,143,ne.png,niger,0.3
202,1096779.0450179891,834.8244510125369,True,206,vu.png,vanuatu,0.3
203,1105967.5217339974,969.7369689964689,True,143,ne.png,niger,0.3
204,1109831.2073830022,1058.317834991496,True,206,vu.png,vanuatu,0.3
205,1114842.515463999,968.0330569972284,True,210,za.png,south africa,0.22500000000000006
206,1119916.0533940012,1125.2488649915904,True,52,ec.png,ecuador,0.20078125
207,1124665.4860549897,1140.372624999145,False,170,sd.png,sudan,0.29999999999999993
208,1129134.7070679911,2490.8761990084313,True,174,sk.png,slovakia,0.312109375
209,1135374.0519829881,841.0023060131352,True,101,jp.png,japan,0.250390625
210,1139146.1074229884,1101.7671610023826,True,6,ao.png,angola,0.3
211,1143475.6801059993,999.0069439953659,True,113,lb.png,lebanon,0.3
212,1148401.087292994,1357.4836619955022,True,6,ao.png,angola,0.3
213,1153059.1943219914,942.4107600064017,True,113,lb.png,lebanon,0.3
214,1157780.9760609963,3339.4100970034488,True,143,ne.png,niger,0.349609375
215,1164240.7719209879,2104.525598013308,True,206,vu.png,vanuatu,0.26054687500000007
216,1170068.792134989,1177.4461750029586,True,41,cr.png,costa rica,0.3
217,1175731.1660169945,1065.8018929969985,True,92,im.png,isle of man,0.3
218,1180701.6851919908,1770.2781770057045,True,41,cr.png,costa rica,0.3
219,1188010.0744679947,1013.7087600016966,True,92,im.png,isle of man,0.3
220,1193131.8168589934,1072.7980509982444,True,33,cg.png,congo,0.24999999999999997
221,1197114.020642999,941.5432999958284,True,6,ao.png,angola,0.250390625
222,1202424.997526992,1003.3163360059261,True,143,ne.png,niger,0.30000000000000004
223,1206275.0255599967,943.2255229912698,True,113,lb.png,lebanon,0.250390625
224,1210893.2154489886,1376.3051140122116,True,47,dj.png,djibouti,0.20078125
225,1215653.1145799963,1127.0674690022133,True,173,si.png,slovenia,0.20078125
226,1220200.6688979892,949.7032850049436,True,174,sk.png,slovakia,0.26250000000000007
227,1224833.8496789946,5628.714102000464,False,170,sd.png,sudan,0.3316406249999999
228,1235045.3152339906,1645.6206620060839,True,41,cr.png,costa rica,0.250390625
229,1240485.657525991,879.4943679966964,True,92,im.png,isle of man,0.250390625
230,1245530.1474680018,1355.5947949935216,True,136,mu.png,mauritius,0.3
231,1251562.184077993,1195.3452129964717,True,209,ye.png,yemen,0.20078125
232,1255894.0730909961,1104.3913689937908,True,136,mu.png,mauritius,0.3
233,1262074.2764689932,1908.7556370068341,False,31,cd.png,democratic republic of the congo,0.3
234,1276265.3522449983,2106.555776000954,True,94,iq.png,iraq,0.20078125
235,1281743.796623996,9640.741712006275,False,31,cd.png,democratic republic of the congo,0.3
236,1293681.361935989,1849.6303850116674,True,194,tt.png,trinidad and tobago,0.20078125
237,1300863.8913399917,905.7276560054161,True,121,lv.png,latvia,0.20078125
238,1304889.1457749996,1085.1432469934225,True,13,ba.png,bosnia and herzegovina,0.20078125
239,1311770.9816389978,1016.1831199950539,True,136,mu.png,mauritius,0.250390625
240,1317703.6842969973,1221.0384409991093,True,187,th.png,thailand,0.3
241,1322465.0836079963,2712.5892409966327,True,170,sd.png,sudan,0.3437499999999999
242,1329763.2889129892,1188.3602330051363,True,187,th.png,thailand,0.3
243,1335354.7559919972,1586.6691620028578,True,31,cd.png,democratic republic of the congo,0.250390625
244,1345591.5942819994,2262.336756000761,True,26,bt.png,bhutan,0.22499999999999998
245,1350951.866555988,3284.1449310071766,False,54,eg.png,egypt,0.29999999999999993
246,1359955.1631020005,1110.2263779900968,True,114,lc.png,saint lucia,0.3
247,1366534.4485329988,1275.0163199962117,True,40,co.png,colombia,0.3
248,1371644.1599059908,738.9492540096398,True,114,lc.png,saint lucia,0.3
249,1377489.9192329904,750.2879170060623,True,40,co.png,colombia,0.3
250,1382326.787450991,951.9128300016746,True,187,th.png,thailand,0.250390625
251,1386806.5669719945,1862.280892994022,True,122,ly.png,libya,0.20078125
252,1392152.8674889996,2511.716266992269,True,158,ps.png,palestine,0.24843749999999998
253,1398838.1296379957,1254.8968979972415,True,145,ni.png,nicaragua,0.3
254,1404633.211744993,1151.7054330031388,True,204,ve.png,venezuela,0.3
255,1410330.2697249893,1049.7091720025055,True,145,ni.png,nicaragua,0.3
256,1415155.8161959983,1301.6187600004487,True,204,ve.png,venezuela,0.3
257,1422716.767655991,931.7084560026415,True,114,lc.png,saint lucia,0.250390625
258,1427652.3226839928,1187.0690479991026,True,40,co.png,colombia,0.250390625
259,1432797.085246988,1490.2519730092026,True,206,vu.png,vanuatu,0.21093750000000008
260,1438016.160027997,1669.4998879975174,True,205,vn.png,vietnam,0.20078125
261,1442829.562340994,1101.589226003969,True,143,ne.png,niger,0.2503906250000001
262,1446905.6584560021,1422.1871629997622,True,101,jp.png,japan,0.20078125
263,1451321.6397049981,1695.241317997221,True,54,eg.png,egypt,0.250390625
264,1456443.1579049998,2801.7437459928915,True,170,sd.png,sudan,0.3496093749999999
265,1462564.627750995,1139.7591169951484,True,145,ni.png,nicaragua,0.250390625
266,1469427.397776002,1869.3494529873133,True,204,ve.png,venezuela,0.250390625
267,1475616.9906839933,1100.5158960032277,True,27,bw.png,botswana,0.3
268,1480711.0414950002,1143.3824509878177,True,152,pa.png,panama,0.3
269,1485010.4954339913,860.5385840055533,True,27,bw.png,botswana,0.3
270,1490032.3411110002,846.4498389950022,True,152,pa.png,panama,0.3
271,1494196.9449710012,1255.0557299982756,True,106,km.png,comoros,0.3
272,1499219.4068769896,1234.4591709987726,True,82,gw.png,guinea bissau,0.3
273,1504455.2152999968,7716.892348995199,False,106,km.png,comoros,0.3
274,1514461.3105359895,934.8295090021566,True,82,gw.png,guinea bissau,0.3
275,1519465.0802569957,1276.8870849977247,True,6,ao.png,angola,0.20078125
276,1523908.0345859984,874.7896979912184,True,113,lb.png,lebanon,0.20078125
277,1528155.104614998,1046.7202309954446,True,99,jm.png,jamaica,0.20078125
278,1532208.9092599927,1079.048728002701,True,27,bw.png,botswana,0.250390625
279,1536884.122288,inf,True,152,pa.png,panama,0.349609375
280,1541624.0268010006,1210.8478789885994,True,69,gb-wls.png,wales,0.3
281,1546186.758883996,1053.7286540055647,True,140,my.png,malaysia,0.3
282,1551143.8139469973,1667.4654139934573,True,69,gb-wls.png,wales,0.3
283,1555905.10279499,710.2645060075447,True,140,my.png,malaysia,0.3
284,1560904.7373119975,2556.4837069977075,True,106,km.png,comoros,0.312890625
285,1566576.7241110005,1482.0100579964928,True,82,gw.png,guinea bissau,0.250390625
286,1572163.3796929964,1514.3434710043948,True,41,cr.png,costa rica,0.20078125
287,1577684.4504499896,1070.1933829984628,True,92,im.png,isle of man,0.20078125
288,1582225.0962069957,984.4629459986463,True,152,pa.png,panama,0.30000000000000004
289,1586406.7636929976,1158.528647996718,True,208,xk.png,kosovo,0.3
290,1590731.194713997,1108.342519000871,True,107,kn.png,saint kitts and nevis,0.3
291,1597490.4981059954,6011.338816999458,False,208,xk.png,kosovo,0.3
292,1605786.7305709952,924.5921370019205,True,107,kn.png,saint kitts and nevis,0.3
293,1611540.590670993,1241.580287009012,True,69,gb-wls.png,wales,0.250390625
294,1615772.546479988,888.4065510062501,True,140,my.png,malaysia,0.250390625
295,1620422.4440260003,1141.9638480003923,True,58,et.png,ethiopia,0.3
296,1625472.3485279973,2268.544930994045,True,170,sd.png,sudan,0.3492187499999999
297,1630791.4747129981,2561.4237870029174,True,58,et.png,ethiopia,0.3
298,1637424.994506,1846.2030189984944,True,136,mu.png,mauritius,0.20078125
299,1644904.3654569979,1040.9500440000556,True,39,cn.png,china,0.3
300,1649197.5337539916,1325.9807480061427,True,208,xk.png,kosovo,0.250390625
301,1653848.101768992,983.0995119991712,True,39,cn.png,china,0.3
302,1657743.8933410011,2677.0249549881555,True,106,km.png,comoros,0.32499999999999996
303,1663487.354224999,998.611642993521,True,107,kn.png,saint kitts and nevis,0.250390625
304,1669936.6964609944,9011.051188994199,True,78,gn.png,guinea,0.29999999999999993
305,1681862.0275189895,1151.9402060075663,True,58,et.png,ethiopia,0.250390625
306,1686713.1917819935,1104.9282940074336,True,174,sk.png,slovakia,0.21289062500000008
307,1691487.8376309935,3406.358751002699,True,31,cd.png,democratic republic of the congo,0.29999999999999993
308,1704059.9589219927,934.3688359949738,True,39,cn.png,china,0.250390625
309,1707881.1246559927,1043.1295040033292,True,187,th.png,thailand,0.20078125
310,1712190.1179939886,994.0068920115009,True,46,de.png,germany,0.3
311,1716715.1566149988,1061.7339140006807,True,4,al.png,albania,0.3
312,1721361.079661001,983.0436029878911,True,46,de.png,germany,0.3
313,1725698.0955909966,846.9075559987687,True,4,al.png,albania,0.3
314,1730066.31410899,1228.7320040049963,True,105,ki.png,kiribati,0.3
315,1735224.1044149995,1490.8730000024661,True,193,tr.png,turkey,0.3
316,1739855.1490129903,799.6593620046042,True,105,ki.png,kiribati,0.3
317,1744654.2302469898,1170.3092670068145,True,193,tr.png,turkey,0.3
318,1749585.4655789882,1135.9548020116054,True,114,lc.png,saint lucia,0.20078125
319,1755520.741343993,2490.4335239988286,True,40,co.png,colombia,0.22499999999999998
320,1762582.4185819947,1141.9355279940646,True,128,mk.png,north macedonia,0.3
321,1769275.6590799983,943.5997909894213,True,46,de.png,germany,0.250390625
322,1773684.4152109988,947.914085991215,True,128,mk.png,north macedonia,0.3
323,1779886.2652609968,874.5768599910662,True,4,al.png,albania,0.250390625
324,1784037.1743849972,1958.0684539978392,True,106,km.png,comoros,0.312890625
325,1789247.4666039925,2868.514094996499,True,78,gn.png,guinea,0.31367187499999993
326,1795797.264652996,940.3705000004265,True,105,ki.png,kiribati,0.250390625
327,1800632.9851889894,875.574283010792,True,193,tr.png,turkey,0.250390625
328,1804715.2045459952,1516.9126440014224,True,31,cd.png,democratic republic of the congo,0.29960937499999996
329,1814880.6101579976,1038.7651679920964,True,145,ni.png,nicaragua,0.20078125
330,1819824.6069320012,1564.4036429875996,True,204,ve.png,venezuela,0.20078125
331,1825671.9751139898,2049.038427998312,True,152,pa.png,panama,0.2558593750000001
332,1830922.6942579988,1015.3414609958418,True,128,mk.png,north macedonia,0.250390625
333,1837114.442760998,1201.9387250039726,True,203,vc.png,saint vincent and the grenadines,0.3
334,1847339.2530159908,1131.1816790113226,True,27,bw.png,botswana,0.20078125
335,1852891.3995789918,1674.281059007626,True,203,vc.png,saint vincent and the grenadines,0.3
336,1861318.8254659907,1611.254593997728,True,170,sd.png,sudan,0.34882812499999993
337,1866693.959900993,1200.8001700015739,True,51,dz.png,algeria,0.3
338,1871483.1214820007,1664.7097059902735,True,43,cv.png,cabo verde,0.3
339,1877514.5333330003,1818.6971489922144,True,51,dz.png,algeria,0.3
340,1882710.4791999883,5280.102848002454,True,43,cv.png,cabo verde,0.3
341,1892801.4466609894,1148.9873360113706,True,102,ke.png,kenya,0.3
342,1898150.6027849973,1140.8382039954886,True,74,gh.png,ghana,0.3
343,1902445.5497729941,1108.7478429982439,True,102,ke.png,kenya,0.3
344,1906924.1369609954,1120.057253996376,True,74,gh.png,ghana,0.3
345,1911035.284389989,1047.8853000095114,False,203,vc.png,saint vincent and the grenadines,0.349609375
346,1917206.6558539956,1370.214153997833,True,82,gw.png,guinea bissau,0.20078125
347,1923331.7057749955,1687.2313409985509,True,158,ps.png,palestine,0.198828125
348,1929144.968511988,1024.618889001198,True,51,dz.png,algeria,0.250390625
349,1933419.499923999,1584.424308995949,True,43,cv.png,cabo verde,0.250390625
350,1938787.7058229933,1754.970809997758,True,69,gb-wls.png,wales,0.20078125
351,1944107.7552249916,937.7058929968625,True,140,my.png,malaysia,0.20078125
352,1948619.7100220015,3829.2147949978244,True,23,bo.png,bolivia,0.324609375
353,1955711.8614229984,1220.7884919918142,True,102,ke.png,kenya,0.250390625
354,1960006.3409110007,1694.4087729936,True,203,vc.png,saint vincent and the grenadines,0.30000000000000004
355,1970988.035560993,1295.4344050085638,True,74,gh.png,ghana,0.250390625
356,1975241.8983099924,1028.4767529957462,True,208,xk.png,kosovo,0.20078125
357,1979626.5866759932,2353.1447310089134,True,89,id.png,indonesia,0.257421875
358,1985873.700955999,1333.5134980008006,True,78,gn.png,guinea,0.31328124999999996
359,1990579.9499019922,1269.5758670016658,True,18,bg.png,bulgaria,0.3
360,1995372.1460819943,1001.9735509995371,True,59,fi.png,finland,0.3
361,2000847.428146997,1240.097859990783,True,18,bg.png,bulgaria,0.3
362,2005883.7875419995,829.111794999335,True,59,fi.png,finland,0.3
363,2010025.6491399924,1158.3143550087698,True,58,et.png,ethiopia,0.20078125
364,2014698.074111002,1437.4491229972336,True,107,kn.png,saint kitts and nevis,0.20078125
365,2021612.845755997,1499.5802030025516,True,39,cn.png,china,0.20078125
366,2026100.2840889995,3155.5539419935085,True,23,bo.png,bolivia,0.33671874999999996
367,2032420.5314499997,1938.281769995112,True,106,km.png,comoros,0.29999999999999993
368,2037490.5271699973,1089.033133990597,True,171,se.png,sweden,0.3
369,2041879.8906339942,1552.0119879948907,True,83,gy.png,guyana,0.3
370,2047327.7467649896,949.4261710061692,True,171,se.png,sweden,0.3
371,2051463.9426799985,906.5063189920038,True,83,gy.png,guyana,0.3
372,2055589.3454329926,2809.657926001819,True,18,bg.png,bulgaria,0.33710937499999993
373,2065237.8616329953,1054.076353000477,True,59,fi.png,finland,0.250390625
374,2071229.6424410015,2472.31140799704,True,31,cd.png,democratic republic of the congo,0.296875
375,2081643.806351989,1018.8922200030647,True,46,de.png,germany,0.20078125
376,2085886.739990994,1493.6482240010519,True,28,by.png,belarus,0.3
377,2091050.5186149967,880.2170970011503,True,4,al.png,albania,0.20078125
378,2095549.4198739906,1025.7643829975277,True,28,by.png,belarus,0.3
379,2099884.072148998,880.2397179971449,True,171,se.png,sweden,0.250390625
380,2103995.673302998,1071.6388339931145,True,83,gy.png,guyana,0.250390625
381,2108282.6446879916,1190.2878050021827,True,18,bg.png,bulgaria,0.2875
382,2113038.600079992,999.4958250024356,True,105,ki.png,kiribati,0.20078125
383,2117504.225782992,1324.5119820055552,True,193,tr.png,turkey,0.20078125
384,2122888.042255989,1184.8001640024595,True,11,aw.png,aruba,0.3
385,2127588.709898002,2335.9525809935294,True,157,pl.png,poland,0.3
386,2133176.668291999,1085.9058639905415,True,11,aw.png,aruba,0.3
387,2137843.0835179896,2242.074075009674,True,157,pl.png,poland,0.3
388,2144122.7582729915,1271.4936840059236,True,28,by.png,belarus,0.250390625
389,2149031.4035159973,1657.761269991286,True,170,sd.png,sudan,0.3320312499999999
390,2154071.379125002,1081.601921992842,True,128,mk.png,north macedonia,0.20078125
391,2159448.7635499975,1409.1079039932229,True,133,mq.png,martinique,0.3
392,2164956.546243993,1087.2269929968752,True,172,sg.png,singapore,0.3
393,2169311.9284290005,869.825057990849,True,133,mq.png,martinique,0.3
394,2174511.0724349944,714.6860460052267,True,172,sg.png,singapore,0.3
395,2178787.335727,1305.316225989256,True,75,gi.png,gibraltar,0.3
396,2184192.0447969898,971.3422380010597,True,11,aw.png,aruba,0.250390625
397,2188441.9712550007,942.3145659966394,True,75,gi.png,gibraltar,0.3
398,2193662.9861629917,1480.0415890058503,True,157,pl.png,poland,0.250390625
399,2198315.5380099923,1771.020899002906,True,23,bo.png,bolivia,0.287109375
400,2203859.0146240024,1349.3281819969416,True,203,vc.png,saint vincent and the grenadines,0.2503906250000001
401,2211681.988076991,1311.9662000099197,True,168,sb.png,solomon islands,0.3
402,2218099.452080001,971.1069269981235,True,133,mq.png,martinique,0.250390625
403,2222717.8053730023,1537.029305996839,True,168,sb.png,solomon islands,0.3
404,2229545.41348599,2390.3029780052602,True,172,sg.png,singapore,0.293359375
405,2236697.702945996,1812.7539510019124,True,75,gi.png,gibraltar,0.250390625
406,2242444.7612599907,1019.1309250076301,True,115,li.png,liechtenstein,0.3
407,2247716.5471100016,1125.1392859993502,True,51,dz.png,algeria,0.20078125
408,2251968.387012996,792.2985719921999,True,115,li.png,liechtenstein,0.3
409,2257625.3507989896,1627.2075209999457,True,43,cv.png,cabo verde,0.20078125
410,2262925.6951599964,1216.8456789948978,True,125,md.png,moldova,0.3
411,2267945.208480989,1216.2295060115866,True,176,sm.png,san marino,0.3
412,2273096.499964988,882.6864180006087,True,125,md.png,moldova,0.3
413,2277359.6643599886,751.4091630000621,True,176,sm.png,san marino,0.3
414,2281917.5084609888,2526.300875004381,True,168,sb.png,solomon islands,0.304296875
415,2288704.353248002,1026.03549399646,True,102,ke.png,kenya,0.20078125
416,2292773.515542998,1358.2164559923112,True,74,gh.png,ghana,0.20078125
417,2297032.4413449997,1188.8058039913885,True,67,gb-nir.png,northern ireland,0.3
418,2303051.1096099946,879.261212001089,True,115,li.png,liechtenstein,0.250390625
419,2308289.0743939932,934.9433229947463,True,67,gb-nir.png,northern ireland,0.3
420,2313942.248544001,967.9854359999299,True,210,za.png,south africa,0.17539062500000005
421,2318663.3370079943,1112.706532003358,True,202,uz.png,uzbekistan,0.3
422,2324463.262317993,948.0771030066535,True,125,md.png,moldova,0.250390625
423,2328698.598650997,4254.336733996868,False,202,uz.png,uzbekistan,0.3
424,2335218.9390669954,1517.2081119962968,True,176,sm.png,san marino,0.250390625
425,2340161.2149199937,1197.8855019989423,True,71,ge.png,georgia,0.3
426,2344920.199176995,1093.5802140012383,True,65,gb.png,united kingdom,0.3
427,2351647.3274789895,1078.3953310023062,True,71,ge.png,georgia,0.3
428,2356526.780186992,1258.692080999259,True,65,gb.png,united kingdom,0.3
429,2362678.553824997,1114.8599669975229,True,67,gb-nir.png,northern ireland,0.250390625
430,2370060.922217992,1563.5363150066696,True,172,sg.png,singapore,0.24375
431,2375045.972747001,5491.312329991721,True,78,gn.png,guinea,0.31367187499999993
432,2383525.1494229888,1781.9667800068855,True,202,uz.png,uzbekistan,0.250390625
433,2390927.8502129894,1256.7543000038713,True,168,sb.png,solomon islands,0.25468750000000007
434,2396057.4913399904,937.9393630078994,True,59,fi.png,finland,0.20078125
435,2401070.5118740005,inf,True,71,ge.png,georgia,0.349609375
436,2406063.7853590017,2112.9266219940037,True,18,bg.png,bulgaria,0.24960937499999997
437,2412029.4832989895,1284.847057002131,False,65,gb.png,united kingdom,0.349609375
438,2417651.750183999,1230.333022001665,False,26,bt.png,bhutan,0.237890625
439,2422151.5683100005,1186.511385996826,True,171,se.png,sweden,0.20078125
440,2426444.0702759894,1243.8541060108691,True,83,gy.png,guyana,0.20078125
441,2430699.239622001,1532.663295991253,True,124,mc.png,monaco,0.15117187499999998
442,2435168.538069993,1574.5056790038943,True,35,ci.png,ivory coast,0.15117187499999998
443,2440349.414034994,995.7596720051952,True,117,lr.png,liberia,0.3
444,2444591.907366994,885.4224039968103,True,71,ge.png,georgia,0.30000000000000004
445,2448483.4206789965,2319.588900994975,False,117,lr.png,liberia,0.3
446,2453766.0683659925,1465.5880049974658,False,65,gb.png,united kingdom,0.39921874999999996
447,2457909.507700999,1213.755400997121,True,28,by.png,belarus,0.20078125
448,2463336.140212996,2034.3704789993353,False,54,eg.png,egypt,0.29999999999999993
449,2468308.238318001,2922.0599929974414,False,106,km.png,comoros,0.312890625
450,2475060.4191059973,1277.458003998734,False,20,bi.png,burundi,0.3
451,2480178.9787839954,1308.9170890017413,True,188,tj.png,tajikistan,0.3
452,2485789.6038259934,1255.9604880078696,False,20,bi.png,burundi,0.3
453,2490365.7747889957,1788.5685819927603,True,188,tj.png,tajikistan,0.3
454,2496576.0389999924,1015.3535010032356,True,65,gb.png,united kingdom,0.398828125
455,2503111.906192993,4034.2496710075065,True,117,lr.png,liberia,0.349609375
456,2510203.2826389913,3120.1906750067137,False,31,cd.png,democratic republic of the congo,0.297265625
457,2516047.623293998,1324.1560329915956,True,11,aw.png,aruba,0.20078125
458,2520169.0365050016,1419.868468991015,False,157,pl.png,poland,0.29999999999999993
459,2526160.8376509976,979.5777309918776,True,143,ne.png,niger,0.2007812500000001
460,2529879.346225993,4939.612440008204,False,133,mq.png,martinique,0.29999999999999993
461,2537095.4274079995,2490.219008992426,True,20,bi.png,burundi,0.312890625
462,2543229.116126997,1976.0739310001954,False,188,tj.png,tajikistan,0.349609375
463,2549413.782440999,968.4044479946606,True,117,lr.png,liberia,0.34921875
464,2553480.264687998,1383.8470240002498,True,75,gi.png,gibraltar,0.20078125
465,2558513.0180720007,1036.1516169942915,True,65,gb.png,united kingdom,0.34921875
466,2565334.348749995,2229.6760299941525,True,54,eg.png,egypt,0.29960937499999996
467,2570638.6254089884,1964.8644830011763,True,153,pe.png,peru,0.15117187499999998
468,2575831.7804779946,978.3043339992873,True,163,ro.png,romania,0.3
469,2579785.7245659977,993.2308519929647,True,42,cu.png,cuba,0.3
470,2583442.4238799983,610.4727749917656,True,163,ro.png,romania,0.3
471,2586894.7452489957,583.1131260055117,True,42,cu.png,cuba,0.3
472,2590064.6443239967,1653.0246009933762,False,188,tj.png,tajikistan,0.39921874999999996
473,2595185.9507920016,1248.6343950005248,True,22,bn.png,brunei,0.3
474,2599564.656524002,915.912197990343,True,151,om.png,oman,0.3
475,2603190.666600989,933.0415139989927,True,22,bn.png,brunei,0.3
476,2607028.416447996,245.246716003865,True,151,om.png,oman,0.3
477,2609957.382372988,934.9498170050792,True,68,gb-sct.png,scotland,0.3
478,2613967.057895992,912.3097300035879,True,115,li.png,liechtenstein,0.20078125
479,2619021.529132995,876.6111479927786,True,68,gb-sct.png,scotland,0.3
480,2624723.8074999913,1349.2422330020927,False,188,tj.png,tajikistan,0.4488281249999999
481,2629578.3567769974,1327.5635989997536,True,157,pl.png,poland,0.27460937499999993
482,2633842.899834999,972.916340994183,True,163,ro.png,romania,0.250390625
483,2638352.5982049904,inf,True,20,bi.png,burundi,0.36249999999999993
484,2650848.3449639897,1279.7663800013252,True,42,cu.png,cuba,0.250390625
485,2654807.7136939974,963.0388590013608,True,188,tj.png,tajikistan,0.42421874999999987
486,2872889.3979970017,inf,True,151,om.png,oman,0.291015625
487,2879087.191088998,1948.109104996547,True,22,bn.png,brunei,0.250390625
488,2884029.142753992,793.7167010097764,True,68,gb-sct.png,scotland,0.250390625
489,2888471.7571789953,1378.8808870012872,True,20,bi.png,burundi,0.312890625
490,2893769.7915640017,1148.606422998011,True,117,lr.png,liberia,0.29960937500000007
491,2898140.562692992,inf,True,188,tj.png,tajikistan,0.4316406249999999
492,2909889.5154529894,9242.405324010178,False,133,mq.png,martinique,0.324609375
493,2921412.237553988,1041.4466010117903,True,71,ge.png,georgia,0.2503906250000001
494,2926043.000823993,2559.181689008139,True,125,md.png,moldova,0.22499999999999998
495,2931879.4664199958,1345.736471004784,True,176,sm.png,san marino,0.20078125
496,2937080.919701999,1256.955521996133,True,67,gb-nir.png,northern ireland,0.20078125
497,2943021.737606992,1118.113618999254,True,65,gb.png,united kingdom,0.29960937500000007
498,2948646.834973988,3742.3688450069167,True,188,tj.png,tajikistan,0.45624999999999993
499,2957774.897402996,3528.904025996104,True,202,uz.png,uzbekistan,0.28359375
500,2965345.244034994,1334.3298990074545,True,106,km.png,comoros,0.26875000000000004
501,2969995.3884029966,2679.5606410014443,True,170,sd.png,sudan,0.33085937499999984
502,2975651.0508219944,1976.9774839952588,True,152,pa.png,panama,0.20781250000000012
503,2980923.056953994,1674.814519006759,True,188,tj.png,tajikistan,0.4316406249999999
504,2989316.423170996,1745.3023239942268,True,151,om.png,oman,0.290625
505,2993830.5773639875,1438.1613860027865,True,163,ro.png,romania,0.20078125
506,2998306.58448,5524.613720990717,True,133,mq.png,martinique,0.32890624999999996
507,3008107.050652994,3563.792419998441,True,78,gn.png,guinea,0.31953124999999993
508,3015153.274462995,1732.4210770018399,True,54,eg.png,egypt,0.2875
509,3020123.882749991,1727.297354009468,True,42,cu.png,cuba,0.20078125
510,3025504.4401299963,1769.3334380020387,True,40,co.png,colombia,0.175390625
511,3031573.664741998,1728.9779529967345,True,33,cg.png,congo,0.20039062499999996
512,3036093.1444070013,7237.196731992066,False,168,sb.png,solomon islands,0.304296875
513,3045608.36750899,1317.4771350021474,True,93,in.png,india,0.15117187499999998
514,3049708.350201996,1400.901918997988,True,183,sy.png,syria,0.15117187499999998
515,3054128.281346988,inf,True,31,cd.png,democratic republic of the congo,0.31015625
516,3064086.2724100007,1039.4841809901409,True,120,lu.png,luxembourg,0.15117187499999998
517,3070436.565434997,949.1541000022553,True,56,er.png,eritrea,0.15117187499999998
518,3075217.3830559915,965.1217540083453,True,138,mw.png,malawi,0.15117187499999998
519,3079220.2668809914,1650.1898470013402,True,188,tj.png,tajikistan,0.4312499999999999
520,3086222.059307998,1660.1860429947264,True,202,uz.png,uzbekistan,0.283203125
521,3091673.146756002,1013.9632739881054,True,34,ch.png,switzerland,0.15117187499999998
522,3096637.1751839905,1834.9819639991038,True,62,fo.png,faroe islands,0.15117187499999998
523,3104346.129066995,1758.297672000248,True,190,tm.png,turkmenistan,0.15117187499999998
524,3110237.928756993,3063.675287005026,True,161,py.png,paraguay,0.201171875
525,3118783.487839988,4529.323593000416,True,20,bi.png,burundi,0.36249999999999993
526,3127111.638174989,1235.9003380117938,True,85,hn.png,honduras,0.15117187499999998
527,3131734.2579249963,5654.1064240010455,True,168,sb.png,solomon islands,0.31640625
528,3141612.7836389933,1266.9431050019339,True,172,sg.png,singapore,0.19414062499999998
529,3146353.1736759907,inf,True,162,qa.png,qatar,0.250390625
530,3152770.6212529885,1232.1035420028493,True,63,fr.png,france,0.15117187499999998
531,3157033.7188229896,1590.7639540089294,True,97,it.png,italy,0.15117187499999998
532,3161805.5413099937,1204.823223000858,True,15,bd.png,bangladesh,0.15117187499999998
533,3166980.194939999,inf,True,157,pl.png,poland,0.3242187499999999
534,3173335.084345992,1888.3997210068628,True,133,mq.png,martinique,0.328515625
535,3178894.199114002,1299.794344988186,True,20,bi.png,burundi,0.312890625
536,3183618.7301949975,2253.1538109905086,True,188,tj.png,tajikistan,0.41914062499999993
537,3190969.065611993,1969.4888789961115,True,117,lr.png,liberia,0.2523437500000001
538,3196301.8649529987,1077.4366949917749,True,22,bn.png,brunei,0.20078125
539,3200399.6269469936,1560.0128539954312,True,200,us.png,united states of america,0.15117187499999998
540,3207799.3516610004,902.8241949998774,True,68,gb-sct.png,scotland,0.20078125
541,3212310.501906002,1264.8153349878266,True,119,lt.png,lithuania,0.15117187499999998
542,3216934.0026069987,1009.9033439909108,True,24,br.png,brazil,0.15117187499999998
543,3221498.612024996,1157.5634399922565,True,104,kh.png,cambodia,0.15117187499999998
544,3226222.710167989,inf,True,86,hr.png,croatia,0.250390625
545,3232796.30271699,3081.071014006622,True,151,om.png,oman,0.291015625
546,3238647.276684991,995.393550009001,True,212,zw.png,zimbabwe,0.15117187499999998
547,3243351.0715519954,1519.4815160064027,True,79,gq.png,equatorial guinea,0.15117187499999998
548,3249493.489538989,2017.1668440015055,True,157,pl.png,poland,0.3238281249999999
549,3254632.0612479905,1125.2648790106177,True,26,bt.png,bhutan,0.2125
550,3258915.245131997,1131.8666029982269,True,154,pg.png,papua new guinea,0.15117187499999998
551,3264544.029564,1979.7079019914381,True,206,vu.png,vanuatu,0.17304687500000007
552,3270950.569074994,1108.3554210052826,True,130,mm.png,myanmar,0.3
553,3275471.849512993,1066.1866629961878,True,14,bb.png,barbados,0.3
554,3281214.4029929913,4545.353324996773,False,130,mm.png,myanmar,0.3
555,3288037.498994992,1111.8719149967656,True,14,bb.png,barbados,0.3
556,3294316.861913001,1651.3566159992479,True,137,mv.png,maldives,0.15117187499999998
557,3301482.216010001,1112.430882989429,True,144,ng.png,nigeria,0.3
558,3305717.75508899,1397.7253170013428,True,192,to.png,tonga,0.3
559,3310397.5124799907,1150.8097260086797,True,144,ng.png,nigeria,0.3
560,3314957.69222299,3182.6154120061547,False,192,to.png,tonga,0.3
561,3321216.70979599,1621.0793200004846,True,162,qa.png,qatar,0.20078125
562,3326557.1277199923,1535.410470998846,True,168,sb.png,solomon islands,0.316015625
563,3332933.862222999,1267.6096729994752,True,130,mm.png,myanmar,0.250390625
564,3337681.3042409923,1129.0548350079916,True,14,bb.png,barbados,0.250390625
565,3342161.450842992,1665.1467320043594,True,188,tj.png,tajikistan,0.36953125
566,3349227.606569999,1406.4017649944872,True,203,vc.png,saint vincent and the grenadines,0.2007812500000001
567,3361719.348186001,2684.718200995121,True,144,ng.png,nigeria,0.324609375
568,3367456.050772991,1078.5174530027434,True,192,to.png,tonga,0.250390625
569,3371883.4258309943,2023.4602139974013,True,89,id.png,indonesia,0.25312500000000004
570,3378222.2176929936,1195.3335919971578,True,25,bs.png,bahamas,0.3
571,3383749.943335992,1031.3206590069458,True,112,la.png,laos,0.3
572,3387594.6590809906,1210.5668430016376,True,25,bs.png,bahamas,0.3
573,3392053.769462989,1714.455537003465,True,112,la.png,laos,0.3
574,3396540.1805549916,1123.8799860002473,True,86,hr.png,croatia,0.20078125
575,3401350.793701,2835.2956599988975,True,31,cd.png,democratic republic of the congo,0.32929687500000004
576,3411345.5955089885,2516.228699008934,True,78,gn.png,guinea,0.31914062499999996
577,3418670.2661820017,1883.633895995561,True,170,sd.png,sudan,0.2843749999999998
578,3423888.08090199,2623.4064690070227,True,189,tl.png,timor leste,0.201171875
579,3430193.426771992,1210.8885909980163,True,144,ng.png,nigeria,0.275
580,3434486.4503689897,1293.4848070000298,True,202,uz.png,uzbekistan,0.23359375000000002
581,3439905.422778989,1069.541346005164,True,25,bs.png,bahamas,0.250390625
582,3444701.2566740015,2072.4428959945217,True,112,la.png,laos,0.255859375
583,3449475.6528829895,3344.0310970032588,True,133,mq.png,martinique,0.3296875
584,3456442.0758139896,1428.4237079988234,True,18,bg.png,bulgaria,0.19999999999999998
585,3461411.523179995,1669.824354001321,True,17,bf.png,burkina faso,0.15117187499999998
586,3466947.267067997,1041.9322929959744,True,60,fj.png,fiji,0.15117187499999998
587,3470876.578038995,1419.6479539964348,True,155,ph.png,philippines,0.15117187499999998
588,3476426.9208569895,1607.3642350095324,True,52,ec.png,ecuador,0.15117187499999998
589,3481970.1510390006,1143.959805995226,True,73,gg.png,guernsey,0.3
590,3487261.845614994,1484.8179569961503,True,157,pl.png,poland,0.29921874999999987
591,3491914.5892660017,927.1872009993531,True,73,gg.png,guernsey,0.3
592,3496161.3660869915,1062.453341001179,True,16,be.png,belgium,0.3
593,3500905.173631996,929.6978700007312,True,178,so.png,somalia,0.3
594,3505174.949063992,5446.743786000647,False,16,be.png,belgium,0.3
595,3513976.9284159993,4154.397021993529,True,178,so.png,somalia,0.3
596,3523693.353253999,2015.2622890016064,True,103,kg.png,kyrgyzstan,0.169921875
597,3530434.9349709954,1025.9217970017344,True,123,ma.png,morocco,0.3
598,3535489.538002992,1100.73219900392,False,109,kr.png,south korea,0.3
599,3540186.316072999,944.219933997374,True,123,ma.png,morocco,0.3
600,3544851.1966289952,829.0537669965997,True,109,kr.png,south korea,0.3
601,3549521.9624809977,1071.6105019967072,True,73,gg.png,guernsey,0.250390625
602,3554025.3713759882,1152.461329009384,True,16,be.png,belgium,0.250390625
603,3558582.0065899896,1245.798324001953,True,199,ug.png,uganda,0.3
604,3563780.8407999985,1055.9983209967613,True,178,so.png,somalia,0.250390625
605,3569067.1701819957,1166.5278220023029,True,199,ug.png,uganda,0.3
606,3573490.297696,971.2362399878912,True,66,gb-eng.png,england,0.3
607,3577601.8636099906,958.750638004858,True,80,gr.png,greece,0.3
608,3581829.469769,904.2690469939262,True,66,gb-eng.png,england,0.3
609,3585849.454878,1492.7919009933248,True,80,gr.png,greece,0.3
610,3590627.928350994,1299.6071300003678,True,123,ma.png,morocco,0.250390625
611,3595762.193755989,929.0492520085536,True,109,kr.png,south korea,0.250390625
612,3600532.5185999973,919.7427119943313,True,151,om.png,oman,0.290625
613,3604184.2202839907,1005.3145950078033,True,156,pk.png,pakistan,0.3
614,3608560.8511140016,1217.021219999995,True,44,cy.png,cyprus,0.3
615,3613132.915565002,2680.259279994294,True,156,pk.png,pakistan,0.3
616,3619762.227681,1522.95116399182,True,44,cy.png,cyprus,0.3
617,3624507.7128139967,1108.9255190016702,True,199,ug.png,uganda,0.250390625
618,3628812.800391999,1408.6111630024388,True,31,cd.png,democratic republic of the congo,0.32890625000000007
619,3637315.847478996,951.3215589979663,True,66,gb-eng.png,england,0.250390625
620,3641932.2645630017,1506.9615299873985,True,80,gr.png,greece,0.250390625
621,3646688.0094469963,5335.571169998497,True,168,sb.png,solomon islands,0.31953125000000004
622,3656384.102897995,1634.6175350043923,True,130,mm.png,myanmar,0.20078125
623,3661459.459847989,997.3964700037614,True,156,pk.png,pakistan,0.250390625
624,3665950.6370809977,1537.9944519954734,True,65,gb.png,united kingdom,0.2500000000000001
625,3673480.615883993,1000.7791520035826,True,44,cy.png,cyprus,0.250390625
626,3678794.5218419917,1786.681744008325,False,14,bb.png,barbados,0.29999999999999993
627,3685202.1449530004,1327.9040859923698,True,173,si.png,slovenia,0.15117187499999998
628,3690006.1560449977,1081.3398040044121,True,192,to.png,tonga,0.20078125
629,3693891.5465249885,1642.5537680042908,True,209,ye.png,yemen,0.15117187499999998
630,3698758.7127189906,1097.965852998197,True,101,jp.png,japan,0.15117187499999998
631,3702784.6399249975,1340.062799994368,True,111,kz.png,kazakhstan,0.3
632,3709290.276995991,1180.2829259978607,True,94,iq.png,iraq,0.15117187499999998
633,3713487.123394996,1014.2405410008505,True,111,kz.png,kazakhstan,0.3
634,3718672.0696379924,1702.2296899957582,True,112,la.png,laos,0.20625000000000002
635,3723135.6504129944,1206.648577004671,True,13,ba.png,bosnia and herzegovina,0.15117187499999998
636,3731860.737131996,1845.6035179984756,True,122,ly.png,libya,0.15429687499999997
637,3737432.6532429988,2574.177789996378,True,23,bo.png,bolivia,0.290625
638,3743430.771372994,946.607688005548,True,121,lv.png,latvia,0.15117187499999998
639,3747599.5990699884,1757.556361000985,True,29,bz.png,belize,0.3
640,3752865.551016992,1192.569820006378,True,25,bs.png,bahamas,0.20078125
641,3757429.738608,987.7196619925089,True,29,bz.png,belize,0.3
642,3761582.4405479943,1317.736098004505,True,20,bi.png,burundi,0.26328125
643,3766432.9005889883,2946.5128830056638,True,111,kz.png,kazakhstan,0.349609375
644,3773395.991557001,2610.4860849883407,True,133,mq.png,martinique,0.335546875
645,3779503.483438995,1314.3659610068426,True,14,bb.png,barbados,0.250390625
646,3786861.7776460014,984.7077539889142,True,6,ao.png,angola,0.15117187499999998
647,3790879.367083995,986.5920190056786,True,144,ng.png,nigeria,0.22539062500000004
648,3794853.845502992,1043.8076069983654,True,48,dk.png,denmark,0.3
649,3799122.7479929947,1300.7496439968236,True,1,ae.png,united arab emirates,0.3
650,3808893.648099998,2556.285425002221,True,48,dk.png,denmark,0.3
651,3814572.14708699,1137.001991010271,True,1,ae.png,united arab emirates,0.3
652,3821631.8605080014,1050.2725299885496,True,29,bz.png,belize,0.250390625
653,3825933.224652996,1074.5835340055637,True,111,kz.png,kazakhstan,0.30000000000000004
654,3831070.2602249947,1449.7951740049757,True,54,eg.png,egypt,0.237890625
655,4038908.3210429964,1828.0489169992507,True,48,dk.png,denmark,0.250390625
656,4044007.123147996,1857.4010290028527,True,1,ae.png,united arab emirates,0.250390625
657,4051646.2011409895,1263.3353890124708,True,16,be.png,belgium,0.20078125
658,4056530.0153939896,1090.6900590052828,True,73,gg.png,guernsey,0.20078125
659,4061031.957065992,1152.5819910019636,True,178,so.png,somalia,0.20078125
660,4065375.634551994,1051.5309799960814,True,123,ma.png,morocco,0.20078125
661,4070169.19501299,898.9190940046683,True,109,kr.png,south korea,0.20078125
662,4075464.743563993,2978.9571270081215,True,66,gb-eng.png,england,0.26249999999999996
663,4081483.101028993,1166.9711709981784,True,80,gr.png,greece,0.20078125
664,4086075.6021799897,1161.3255670093931,True,199,ug.png,uganda,0.20078125
665,4090472.44903,1297.9054359891452,True,156,pk.png,pakistan,0.20078125
666,4095113.858758996,1478.9650320014916,True,44,cy.png,cyprus,0.20078125
667,4099798.7111089895,1415.5154000036418,True,188,tj.png,tajikistan,0.34257812499999996
668,4105102.984199999,1403.49171699211,True,111,kz.png,kazakhstan,0.2503906250000001
669,4111479.7309699934,1469.8660290013067,True,168,sb.png,solomon islands,0.31914062500000007
670,4117497.5010179915,1348.7647050060332,False,71,ge.png,georgia,0.30000000000000004
671,4122352.3858769913,1190.842794007156,True,125,md.png,moldova,0.175390625
672,4126961.5258150008,1716.6480189915746,True,31,cd.png,democratic republic of the congo,0.3285156250000001
673,4135827.4146999903,1732.7000340009108,True,78,gn.png,guinea,0.31875
674,4140579.892224996,977.5298530003056,True,113,lb.png,lebanon,0.15117187499999998
675,4144864.375616002,1476.3201229944825,True,133,mq.png,martinique,0.33515625000000004
676,4150548.2757739956,9094.478394996375,True,194,tt.png,trinidad and tobago,0.250390625
677,4164722.1686939886,1241.9352040011436,True,151,om.png,oman,0.24101562500000004
678,4168679.957233995,1145.251679001376,True,41,cr.png,costa rica,0.15117187499999998
679,4173914.2133899876,1166.588305001147,True,29,bz.png,belize,0.20078125
680,4180314.6542429896,1018.5918460045941,True,92,im.png,isle of man,0.15117187499999998
681,4185317.0757509945,1932.9143670033664,True,136,mu.png,mauritius,0.159765625
682,4191497.9178599897,3403.3363300110213,True,47,dj.png,djibouti,0.201171875
683,4198439.294218988,1073.6708840122446,True,205,vn.png,vietnam,0.15117187499999998
684,4202724.979918988,1244.9471180010587,True,27,bw.png,botswana,0.15117187499999998
685,4208391.3935739985,1242.2667319914326,True,71,ge.png,georgia,0.2503906250000001
686,4213427.068751989,1106.4445070084184,True,187,th.png,thailand,0.15117187499999998
687,4217756.452946996,1110.0081710033119,True,114,lc.png,saint lucia,0.15117187499999998
688,4222685.747452997,1384.6990570025519,True,204,ve.png,venezuela,0.15117187499999998
689,4227914.410683996,1056.090329002589,True,145,ni.png,nicaragua,0.15117187499999998
690,4232788.254575993,1236.0179499955848,True,148,np.png,nepal,0.3
691,4237759.815265992,1032.1416800003499,True,180,ss.png,south sudan,0.3
692,4243118.9112239955,986.0562829999253,True,148,np.png,nepal,0.3
693,4247410.775501994,895.0502009969205,True,180,ss.png,south sudan,0.3
694,4252009.922692989,1098.8629780039191,True,181,st.png,sao tome and principe,0.3
695,4258470.538215988,1105.0898020034656,True,139,mx.png,mexico,0.3
696,4262751.280432989,1270.527087006718,True,181,st.png,sao tome and principe,0.3
697,4268966.161987002,948.2505669873208,True,139,mx.png,mexico,0.3
698,4273037.101418988,1155.1976000042632,True,39,cn.png,china,0.15117187499999998
699,4277078.532336993,1172.68401700072,True,72,gf.png,french guiana,0.3
700,4284770.867797997,1467.2325839931145,True,157,pl.png,poland,0.24960937499999986
701,4289183.542903993,8627.741653006524,False,72,gf.png,french guiana,0.3
702,4300085.770766993,1079.0388169987127,True,148,np.png,nepal,0.250390625
703,4304850.538252998,1113.811888994649,True,180,ss.png,south sudan,0.250390625
704,4309773.1671099905,1667.7316080015153,True,194,tt.png,trinidad and tobago,0.20078125
705,4316776.529966999,1782.612769995816,True,181,st.png,sao tome and principe,0.250390625
706,4324270.779991988,882.3593130074441,True,139,mx.png,mexico,0.250390625
707,4328469.097705995,inf,True,69,gb-wls.png,wales,0.201171875
708,4333920.9845309965,4304.715006000362,True,140,my.png,malaysia,0.201171875
709,4341809.4492230015,2130.8144979989156,True,72,gf.png,french guiana,0.275390625
710,4348222.857740998,1140.0490819942206,True,46,de.png,germany,0.15117187499999998
711,4352693.172182989,1237.7471710061654,True,208,xk.png,kosovo,0.15117187499999998
712,4357119.625719002,1490.9899229966104,True,58,et.png,ethiopia,0.15117187499999998
713,4362445.4785409905,1060.5218280106783,True,146,nl.png,netherlands,0.3
714,4367417.680002997,1390.0435359971598,True,66,gb-eng.png,england,0.21289062499999997
715,4372019.4367649965,1114.979556005448,True,146,nl.png,netherlands,0.3
716,4376596.457059001,911.6859619971365,True,4,al.png,albania,0.15117187499999998
717,4380656.912958002,1794.3459889944643,True,48,dk.png,denmark,0.20078125
718,4385574.106907995,1239.9722849950194,True,185,td.png,chad,0.3
719,4390073.167508991,2401.1334020039067,True,1,ae.png,united arab emirates,0.20078125
720,4398439.050811998,1977.3918319987133,True,185,td.png,chad,0.3
721,4403340.301645992,1968.0811820002273,True,82,gw.png,guinea bissau,0.162109375
722,4410412.245265994,1151.2597599942237,True,90,ie.png,ireland,0.3
723,4414725.66091099,1147.0383150009438,True,207,ws.png,samoa,0.3
724,4419039.402839989,2078.5200270041823,True,90,ie.png,ireland,0.3
725,4424153.544786997,4850.910433000885,False,207,ws.png,samoa,0.3
726,4431269.742459001,891.9540979983285,True,146,nl.png,netherlands,0.250390625
727,4435546.789259999,1320.7156869899482,True,193,tr.png,turkey,0.15117187499999998

