trial,start_time,rt,correct,fact_id,question,answer,alpha
1,52825.358196001616,15306.726622002316,True,175,sl.png,sierra leone,0.3
2,76395.86005300225,1189.1919810004765,False,175,sl.png,sierra leone,0.3
3,82552.391189005,7702.677613997366,True,181,st.png,sao tome and principe,0.3
4,98973.9932550001,1129.1384390060557,False,181,st.png,sao tome and principe,0.3
5,108826.47278399963,2225.9383760101628,True,183,sy.png,syria,0.3
6,114984.30436300987,2329.252807990997,True,14,bb.png,barbados,0.3
7,124202.64511300775,1325.4800979921129,True,183,sy.png,syria,0.3
8,128814.61393200152,1058.3021409984212,True,14,bb.png,barbados,0.3
9,133835.6696109986,1798.1480300077237,True,175,sl.png,sierra leone,0.250390625
10,141191.50387500122,3670.0839240074856,True,95,ir.png,iran,0.3
11,151110.26201600907,3256.2360579904635,True,181,st.png,sao tome and principe,0.349609375
12,161990.9611690091,1008.809091988951,True,95,ir.png,iran,0.3
13,166484.22801100241,1899.415820997092,True,58,et.png,ethiopia,0.3
14,174638.0580200057,1077.9997869976796,True,183,sy.png,syria,0.250390625
15,178940.61810900166,1156.5808610030217,True,58,et.png,ethiopia,0.3
16,184250.59198899544,977.6394150103442,True,14,bb.png,barbados,0.250390625
17,189041.6466260067,2634.0655999956653,True,134,mr.png,mauritania,0.3
18,200180.58597500203,1509.593530005077,True,181,st.png,sao tome and principe,0.34921875
19,208290.794215005,2355.4241370002273,True,134,mr.png,mauritania,0.3
20,222710.23783899727,857.0906640088651,True,95,ir.png,iran,0.250390625
21,226948.32806900376,4425.498773998697,True,203,vc.png,saint vincent and the grenadines,0.3
22,253844.2157630052,1283.3465000003343,True,58,et.png,ethiopia,0.250390625
23,258687.14130899752,3323.005557002034,True,203,vc.png,saint vincent and the grenadines,0.3
24,276456.7827209976,2472.9879340011394,True,134,mr.png,mauritania,0.27460937500000004
25,288112.4630490085,2092.126687988639,True,56,er.png,eritrea,0.3
26,299969.7902670014,2822.1521810046397,True,181,st.png,sao tome and principe,0.37773437500000007
27,308570.3446970001,1619.2759969999315,True,56,er.png,eritrea,0.3
28,313889.12533600524,5520.661909991759,True,203,vc.png,saint vincent and the grenadines,0.32539062499999993
29,333105.60526300105,2243.9856179989874,True,161,py.png,paraguay,0.3
30,349065.02765399637,1781.3319340057205,True,132,mo.png,macao,0.3
31,355179.2483419995,1520.7423829997424,True,161,py.png,paraguay,0.3
32,360878.09098100115,910.7714080018923,True,132,mo.png,macao,0.3
33,365582.5844339997,1240.0955820048694,True,56,er.png,eritrea,0.250390625
34,370440.8417700033,923.0595499975607,False,181,st.png,sao tome and principe,0.38359375000000007
35,376991.7704899999,1058.9112730085617,True,124,mc.png,monaco,0.3
36,382236.85123299947,903.6456659960095,True,147,no.png,norway,0.3
37,386934.9099030078,1018.477505989722,True,124,mc.png,monaco,0.3
38,391619.5576589962,820.1292540034046,True,147,no.png,norway,0.3
39,396883.9431259985,7083.328713008086,True,203,vc.png,saint vincent and the grenadines,0.3749999999999999
40,411114.012570004,1073.1655239942484,True,161,py.png,paraguay,0.250390625
41,417650.3911750042,924.1891940037021,True,132,mo.png,macao,0.250390625
42,421798.02361500333,2397.9556870035594,True,23,bo.png,bolivia,0.3
43,429713.8059470017,995.7192319998285,True,0,ad.png,andorra,0.3
44,434952.20810700266,2611.24311099411,True,23,bo.png,bolivia,0.3
45,443008.4315330023,1076.6306830046233,True,0,ad.png,andorra,0.3
46,447509.4669490063,885.5707549955696,True,124,mc.png,monaco,0.250390625
47,451957.49445300316,1189.6859809930902,True,203,vc.png,saint vincent and the grenadines,0.3746093749999999
48,462827.18826900236,913.7325719930232,True,147,no.png,norway,0.250390625
49,467279.18900600343,1489.6436239941977,True,181,st.png,sao tome and principe,0.3753906250000001
50,478104.6704210021,2479.3382710049627,True,169,sc.png,seychelles,0.3
51,484149.8289720039,5733.6686799972085,True,134,mr.png,mauritania,0.30000000000000004
52,497904.51787400525,1004.2463179997867,True,169,sc.png,seychelles,0.3
53,503197.88957700075,1243.8446000014665,True,23,bo.png,bolivia,0.250390625
54,508047.7630420064,1087.7070900023682,True,0,ad.png,andorra,0.250390625
55,512673.80291200243,29199.55899300112,False,175,sl.png,sierra leone,0.29999999999999993
56,544144.8023639969,1289.281347009819,True,203,vc.png,saint vincent and the grenadines,0.32499999999999996
57,565647.6182470069,874.2031250003492,True,169,sc.png,seychelles,0.250390625
58,570638.2474160055,2225.823782995576,True,183,sy.png,syria,0.2125
59,576416.9212940033,14193.344330997206,False,14,bb.png,barbados,0.29999999999999993
60,592880.7310779957,954.3030630011344,True,95,ir.png,iran,0.20078125
61,597106.7812469992,4666.816052005743,True,58,et.png,ethiopia,0.29999999999999993
62,608399.3326500058,1316.7238449968863,True,71,ge.png,georgia,0.3
63,615346.7777290061,1465.7684529956896,True,175,sl.png,sierra leone,0.29960937499999996
64,621874.5279590075,902.4977660010336,True,71,ge.png,georgia,0.3
65,628314.3382429989,2077.704283001367,True,181,st.png,sao tome and principe,0.3382812500000001
66,637066.8581560021,1162.642548995791,False,10,au.png,australia,0.3
67,644715.4657549981,12779.942651002784,True,134,mr.png,mauritania,0.349609375
68,662380.2994610014,1076.4292069943622,True,10,au.png,australia,0.3
69,667409.6279520018,917.6386369945249,True,14,bb.png,barbados,0.250390625
70,672045.3473200032,798.4765610017348,True,71,ge.png,georgia,0.250390625
71,676243.7125569995,1072.9457350098528,True,41,cr.png,costa rica,0.3
72,681261.9908530032,1013.6672380031087,True,48,dk.png,denmark,0.3
73,685880.1100490091,1251.1714059946826,True,41,cr.png,costa rica,0.3
74,691948.4801810031,767.0350870030234,True,48,dk.png,denmark,0.3
75,696676.6432580043,inf,True,58,et.png,ethiopia,0.324609375
76,703742.7652010083,inf,True,134,mr.png,mauritania,0.36250000000000004
77,711826.6260490054,1290.0340249907458,True,160,pw.png,palau,0.3
78,716608.8452510012,990.82966199785,True,10,au.png,australia,0.250390625
79,721359.299513002,896.3319030008279,True,160,pw.png,palau,0.3
80,727423.7640409992,1434.7807520098286,True,56,er.png,eritrea,0.20078125
81,732393.6129089998,963.6817480059108,True,97,it.png,italy,0.3
82,736577.295620009,872.0945209934143,True,41,cr.png,costa rica,0.250390625
83,741712.9747919971,838.3633170014946,True,97,it.png,italy,0.3
84,746841.7179460084,873.366736996104,True,48,dk.png,denmark,0.250390625
85,751254.7611869959,1576.082204002887,True,132,mo.png,macao,0.20078125
86,756527.501101009,988.3658309991006,True,143,ne.png,niger,0.3
87,761370.8080130018,1061.1352779960725,True,153,pe.png,peru,0.3
88,765594.2399400083,702.683851995971,True,143,ne.png,niger,0.3
89,769374.5371770055,831.0247640038142,True,153,pe.png,peru,0.3
90,773409.6233290038,1608.9012729935348,True,160,pw.png,palau,0.250390625
91,778293.2751600019,897.012318004272,True,124,mc.png,monaco,0.20078125
92,782717.3734109965,1394.7554000042146,True,161,py.png,paraguay,0.20078125
93,787946.1183530075,966.8470949982293,False,147,no.png,norway,0.29999999999999993
94,792502.0996550011,1054.1376100009074,True,97,it.png,italy,0.250390625
95,797436.664998997,1163.3441760059213,True,117,lr.png,liberia,0.3
96,803458.1098330091,2039.9386809876887,True,134,mr.png,mauritania,0.358984375
97,810310.5902200041,1677.1999140037224,True,117,lr.png,liberia,0.3
98,815632.5011139998,1685.7144750101725,True,143,ne.png,niger,0.250390625
99,820276.8387990072,1629.4162619888084,True,153,pe.png,peru,0.250390625
100,824772.3057389958,2061.3430500088725,True,58,et.png,ethiopia,0.32421875
101,830882.7987420082,2290.203936994658,True,3,ag.png,antigua and barbuda,0.3
102,842391.8934329995,5378.191443000105,False,23,bo.png,bolivia,0.29999999999999993
103,852090.9294120065,1659.7553689935012,True,3,ag.png,antigua and barbuda,0.3
104,862002.8485530056,946.7855190014234,True,117,lr.png,liberia,0.250390625
105,866255.6875750015,1047.7958459960064,True,0,ad.png,andorra,0.20078125
106,871501.8219670019,944.6358429995598,True,119,lt.png,lithuania,0.3
107,878457.7293180046,3013.999168004375,True,187,th.png,thailand,0.3
108,885482.1132259967,2050.5427440075437,False,119,lt.png,lithuania,0.3
109,891113.0160920002,1973.8806660025148,True,187,th.png,thailand,0.3
110,897252.237150009,1124.0740469947923,True,147,no.png,norway,0.250390625
111,901994.8998089967,1468.3363900112454,True,175,sl.png,sierra leone,0.24999999999999997
112,908186.7127300065,1925.1910320017487,True,3,ag.png,antigua and barbuda,0.250390625
113,916705.1967590087,25797.28256299859,False,203,vc.png,saint vincent and the grenadines,0.3746093749999999
114,944782.0852489967,1105.2523070102325,True,119,lt.png,lithuania,0.250390625
115,950242.7854029957,941.3289340009214,True,187,th.png,thailand,0.250390625
116,956452.2374719963,1341.9248040008824,True,23,bo.png,bolivia,0.29960937499999996
117,961467.6684910082,1033.1929120002314,True,169,sc.png,seychelles,0.20078125
118,967248.4199760074,1288.3575829910114,False,203,vc.png,saint vincent and the grenadines,0.39765624999999993
119,975626.896975009,1159.7827219957253,False,134,mr.png,mauritania,0.37968750000000007
120,986735.2784149989,4008.0600869987393,True,45,cz.png,czechia,0.3
121,1011543.3324790065,1267.4069229979068,True,71,ge.png,georgia,0.20078125
122,1017842.7785990061,1480.930517995148,True,45,cz.png,czechia,0.3
123,1023713.606218007,1286.868584997137,True,111,kz.png,kazakhstan,0.3
124,1033719.1317440011,1462.3675680049928,True,203,vc.png,saint vincent and the grenadines,0.348046875
125,1050556.9761960069,1285.027207995765,False,111,kz.png,kazakhstan,0.3
126,1057852.9227639956,1496.7334950051736,True,41,cr.png,costa rica,0.20078125
127,1063403.9915760076,1217.0951009904966,True,58,et.png,ethiopia,0.29960937499999996
128,1069957.2011279962,2159.9866850008257,True,45,cz.png,czechia,0.250390625
129,1076895.7617520064,789.0521520019975,False,48,dk.png,denmark,0.29999999999999993
130,1081314.1950919963,1168.4658320008311,True,134,mr.png,mauritania,0.3792968750000001
131,1087522.6089159986,1420.1058080070652,True,181,st.png,sao tome and principe,0.3363281250000001
132,1096144.8066070005,1061.9502460032236,True,160,pw.png,palau,0.20078125
133,1100515.1583380066,793.2522949995473,True,10,au.png,australia,0.20078125
134,1105429.9013889977,1054.477441997733,True,111,kz.png,kazakhstan,0.287109375
135,1115733.3163110015,888.7930909986608,True,97,it.png,italy,0.20078125
136,1120241.632446996,1345.2673020074144,True,125,md.png,moldova,0.3
137,1125210.0895740003,990.8498139996082,True,153,pe.png,peru,0.20078125
138,1129176.0583419963,1037.7625530092046,True,125,md.png,moldova,0.3
139,1133610.2914240037,1232.404239999596,True,143,ne.png,niger,0.20078125
140,1138241.189296008,1904.4791639898904,True,11,aw.png,aruba,0.3
141,1144021.1115010025,1320.4098840069491,False,193,tr.png,turkey,0.3
142,1149918.7408340075,2307.564791990444,True,11,aw.png,aruba,0.3
143,1155789.156868006,1275.5972500017378,True,193,tr.png,turkey,0.3
144,1160507.4890390097,1582.078665989684,True,86,hr.png,croatia,0.3
145,1166335.659299002,1584.8173720007762,False,31,cd.png,democratic republic of the congo,0.3
146,1198506.7400679982,1137.604393006768,True,86,hr.png,croatia,0.3
147,1203751.029610008,1264.5594509961084,True,31,cd.png,democratic republic of the congo,0.3
148,1212813.6964260046,inf,True,125,md.png,moldova,0.349609375
149,1221836.384536,1054.394292004872,True,11,aw.png,aruba,0.250390625
150,1228848.236320002,879.4669149937108,True,193,tr.png,turkey,0.250390625
151,1233584.9979880005,1026.5939679956064,True,48,dk.png,denmark,0.250390625
152,1238370.7486710045,1235.8519550035708,True,117,lr.png,liberia,0.20078125
153,1243154.405363006,5716.48662000359,False,23,bo.png,bolivia,0.32421875
154,1252300.902738003,inf,True,125,md.png,moldova,0.37812500000000004
155,1261162.7789049963,949.157738010399,True,86,hr.png,croatia,0.250390625
156,1269373.7521200092,inf,True,31,cd.png,democratic republic of the congo,0.300390625
157,1284009.395125002,1130.073966996977,True,134,mr.png,mauritania,0.32968750000000013
158,1291977.4415550055,1210.9475280013867,True,111,kz.png,kazakhstan,0.23750000000000002
159,1298818.033129006,18785.44461799902,False,3,ag.png,antigua and barbuda,0.29999999999999993
160,1325228.9112370054,3491.990670998348,True,125,md.png,moldova,0.427734375
161,1333780.801080007,1570.7391869947314,True,187,th.png,thailand,0.20078125
162,1340317.486289001,3127.962619997561,False,119,lt.png,lithuania,0.29999999999999993
163,1346784.157379996,2025.1636419999413,False,125,md.png,moldova,0.43984375
164,1551471.9588959997,12452.425966999726,True,31,cd.png,democratic republic of the congo,0.34375
165,1572613.5891640005,1203.2451240085065,True,125,md.png,moldova,0.390234375
166,1586170.7974550081,2772.3491389914416,True,3,ag.png,antigua and barbuda,0.2871093749999999
167,1603188.7369530015,3945.4434159996454,True,119,lt.png,lithuania,0.32539062499999993
168,1612752.344091001,1176.9007749971934,True,23,bo.png,bolivia,0.27460937500000004
169,1618098.1886270018,2272.0471820067614,True,45,cz.png,czechia,0.21718749999999998
170,1624412.1877889992,1513.9325049968902,True,31,cd.png,democratic republic of the congo,0.343359375
171,1636133.5993859975,1027.01049500308,True,181,st.png,sao tome and principe,0.28671875000000013
172,1645922.4026230075,1624.7547439998016,True,203,vc.png,saint vincent and the grenadines,0.2984375
173,1655668.330718996,9305.255922008771,False,11,aw.png,aruba,0.29999999999999993
174,1667243.6480059987,1097.8191670002416,True,193,tr.png,turkey,0.20078125
175,1671765.973845002,inf,True,125,md.png,moldova,0.43984375
176,1681086.1927450025,793.0684330058284,True,86,hr.png,croatia,0.20078125
177,1686049.9864459997,2099.714049007278,True,119,lt.png,lithuania,0.31953124999999993
178,1693161.0910900054,969.1155320033431,True,164,rs.png,serbia,0.3
179,1697462.3988950043,1386.888091001194,True,125,md.png,moldova,0.439453125
180,1706236.3066380057,945.7656180020422,True,164,rs.png,serbia,0.3
181,1710514.302416006,2136.760952998884,True,58,et.png,ethiopia,0.2875
182,1718423.5370000098,913.8921309930738,True,101,jp.png,japan,0.3
183,1722575.5419310008,916.9063730079215,True,28,by.png,belarus,0.3
184,1727795.2916000066,955.9724650026765,True,101,jp.png,japan,0.3
185,1732317.782500002,1453.466569000855,True,28,by.png,belarus,0.3
186,1738579.686640005,1042.2414140049368,True,11,aw.png,aruba,0.27460937499999993
187,1743011.397162001,2045.8274550037459,True,14,bb.png,barbados,0.2125
188,1749728.171736002,1586.6318850021344,False,31,cd.png,democratic republic of the congo,0.34375
189,1764079.9555740086,973.956684989389,True,164,rs.png,serbia,0.250390625
190,1768881.648390001,956.7901550035458,True,125,md.png,moldova,0.38984375000000004
191,1777029.6557410038,853.1877880012617,True,101,jp.png,japan,0.250390625
192,1781457.233000998,4842.552426008973,True,28,by.png,belarus,0.349609375
193,1790066.3776489964,2050.066419003997,True,207,ws.png,samoa,0.3
194,1797843.3079910027,991.6812409940176,True,186,tg.png,togo,0.3
195,1802047.359492004,929.4597270055674,True,207,ws.png,samoa,0.3
196,1806449.8319889973,746.9956280109473,True,186,tg.png,togo,0.3
197,1810497.6420199964,1396.2259120016824,True,17,bf.png,burkina faso,0.3
198,1820120.040159003,1412.1271379990503,True,162,qa.png,qatar,0.3
199,1825435.5095869978,1137.006663004402,False,17,bf.png,burkina faso,0.3
200,1829645.7064580028,1033.726958994288,True,162,qa.png,qatar,0.3
201,1834647.319167998,1285.9906450030394,True,28,by.png,belarus,0.30000000000000004
202,1842010.687603004,1572.4014419976156,True,106,km.png,comoros,0.3
203,1848177.739521998,1097.365430003032,True,135,mt.png,malta,0.3
204,1852496.6766480065,1665.2600429952145,False,106,km.png,comoros,0.3
205,1857660.5677210027,1433.1836759955622,True,135,mt.png,malta,0.3
206,1862167.211143009,1305.5688269960228,True,207,ws.png,samoa,0.250390625
207,1867314.836860998,1483.738649010891,True,186,tg.png,togo,0.250390625
208,1871653.5506770015,911.5967670078389,False,173,si.png,slovenia,0.3
209,1876280.8620980068,2657.1067929908168,True,17,bf.png,burkina faso,0.337890625
210,1883816.9445560053,inf,True,173,si.png,slovenia,0.3
211,1890376.9093200099,1057.4797139996663,True,162,qa.png,qatar,0.250390625
212,1895146.2606450077,1263.8053929987364,True,166,rw.png,rwanda,0.3
213,1900987.0017229987,973.3061890001409,True,106,km.png,comoros,0.250390625
214,1906204.136476008,1110.8801649969537,True,166,rw.png,rwanda,0.3
215,1910546.6464030033,819.360348003218,True,135,mt.png,malta,0.250390625
216,1914302.397375999,1390.4336030101404,True,3,ag.png,antigua and barbuda,0.2851562499999999
217,1922469.2336500012,1472.3406679984182,True,47,dj.png,djibouti,0.3
218,1933055.9421149956,2541.183508001268,False,17,bf.png,burkina faso,0.38749999999999996
219,1939711.5905850078,3873.340861988254,False,47,dj.png,djibouti,0.3
220,1949501.8179250038,1011.4809850053862,True,173,si.png,slovenia,0.250390625
221,1953842.0984920086,1286.1578320006374,True,31,cd.png,democratic republic of the congo,0.343359375
222,1963810.0887990003,2770.978729997296,True,166,rw.png,rwanda,0.324609375
223,1970633.4290789964,1976.7969270034228,True,119,lt.png,lithuania,0.3160156249999999
224,1976251.6180179955,1429.2709210130852,True,17,bf.png,burkina faso,0.337890625
225,1983116.9623430031,839.8298380053602,True,147,no.png,norway,0.20078125
226,1989365.0228860062,943.9726209966466,True,109,kr.png,south korea,0.3
227,1999205.019866,2495.7849409985356,False,47,dj.png,djibouti,0.349609375
228,2006199.2858150043,inf,True,109,kr.png,south korea,0.3
229,2013375.676597003,1520.9535400061868,True,114,lc.png,saint lucia,0.3
230,2019128.273137001,815.4942889960948,True,170,sd.png,sudan,0.3
231,2025371.6567369993,inf,True,114,lc.png,saint lucia,0.3
232,2031633.2652940038,425.53675999795087,True,170,sd.png,sudan,0.3
233,2036112.6715550055,1228.6967249964364,True,166,rw.png,rwanda,0.275
234,2040666.451804005,2733.6058410000987,True,47,dj.png,djibouti,0.39921874999999996
235,2047843.8480250044,854.740555005148,True,129,ml.png,mali,0.3
236,2052439.3905629986,822.1413029967807,True,127,mg.png,madagascar,0.3
237,2059309.247181998,20942.32431000285,True,129,ml.png,mali,0.3
238,2083059.601414003,2747.022245006403,True,127,mg.png,madagascar,0.3
239,2090845.6676600035,705.0672969925217,True,109,kr.png,south korea,0.250390625
240,2097130.4897439987,7833.891357004177,True,47,dj.png,djibouti,0.4136718749999999
241,2109843.1484110043,inf,True,114,lc.png,saint lucia,0.349609375
242,2117534.025387009,1579.3237559990957,True,170,sd.png,sudan,0.250390625
243,2122166.753872996,1521.5082910000347,True,28,by.png,belarus,0.2503906250000001
244,2127565.080500004,1027.114711993374,True,129,ml.png,mali,0.250390625
245,2131447.428782005,inf,True,125,md.png,moldova,0.390234375
246,2138773.56253301,953.1924569890834,True,101,jp.png,japan,0.20078125
247,2143240.8422470037,inf,True,47,dj.png,djibouti,0.43828124999999996
248,2151487.3774949955,4225.669095001649,True,127,mg.png,madagascar,0.349609375
249,2166397.348479004,2013.172752995044,True,114,lc.png,saint lucia,0.34921875
250,2172857.1830470026,inf,True,164,rs.png,serbia,0.29999999999999993
251,2178264.5984660047,5635.166512991767,True,17,bf.png,burkina faso,0.38749999999999996
252,2190935.267451001,2846.834701005835,True,47,dj.png,djibouti,0.462890625
253,2401804.974480998,2008.5217630113475,True,127,mg.png,madagascar,0.30000000000000004
254,2412377.9928730074,inf,True,47,dj.png,djibouti,0.4625
255,2423195.028034999,inf,True,17,bf.png,burkina faso,0.406640625
256,2443510.286685996,2947.101208002772,True,114,lc.png,saint lucia,0.326171875
257,2451452.460614004,856.3801800045185,True,164,rs.png,serbia,0.250390625
258,2455752.2309479974,inf,True,47,dj.png,djibouti,0.4808593750000001
259,2469657.327818,23834.459877005313,False,186,tg.png,togo,0.2875
260,2495756.478306008,1302.2793419947848,True,31,cd.png,democratic republic of the congo,0.29375000000000007
261,2507305.220638009,1531.2872429932468,True,17,bf.png,burkina faso,0.4046875
262,2518425.070049998,2720.4779599998146,True,47,dj.png,djibouti,0.46640625000000013
263,2528613.0678150076,1134.1542229927145,True,207,ws.png,samoa,0.20078125
264,2532990.7110659988,3659.291175005026,True,106,km.png,comoros,0.28437499999999993
265,2540193.271035008,1171.027889999561,True,162,qa.png,qatar,0.20078125
266,2545279.532501998,896.5796660049818,True,135,mt.png,malta,0.20078125
267,2554163.907497001,1588.317984001711,True,125,md.png,moldova,0.34062500000000007
268,2563669.175329007,2080.876957988832,True,173,si.png,slovenia,0.20078125
269,2571206.110551997,1075.5608790060505,True,134,mr.png,mauritania,0.2800781250000002
270,2577225.549847004,1105.8277739938349,True,11,aw.png,aruba,0.22499999999999995
271,2582419.4243340027,1129.9537979937159,True,119,lt.png,lithuania,0.29218749999999993
272,2587634.4799310025,2210.374168993905,True,166,rw.png,rwanda,0.23554687500000002
273,2594043.185565999,2577.624427009374,True,47,dj.png,djibouti,0.4628906250000001
274,2604559.895095008,5781.746693988796,True,129,ml.png,mali,0.29999999999999993
275,2613242.3270510044,6330.754565991927,True,17,bf.png,burkina faso,0.40507812499999996
276,2624700.172110999,742.8631520015188,True,109,kr.png,south korea,0.20078125
277,2629401.683919001,1153.2685529962182,True,170,sd.png,sudan,0.20078125
278,2633574.9503020053,1635.791598004289,True,186,tg.png,togo,0.237890625
279,2637952.1866190042,1522.8003619997762,True,111,kz.png,kazakhstan,0.187890625
280,2645650.856884997,839.8898430024274,True,48,dk.png,denmark,0.20078125
281,2649791.892592009,1513.8049719976261,False,114,lc.png,saint lucia,0.37578124999999996
282,2655749.828451997,1399.6902400101535,True,3,ag.png,antigua and barbuda,0.2371093749999999
283,2675165.044135996,inf,True,127,mg.png,madagascar,0.349609375
284,2690606.4507609988,inf,True,47,dj.png,djibouti,0.4632812500000001
285,2713618.189775007,1696.2483519888483,True,106,km.png,comoros,0.28398437499999996
286,2718445.1349239973,2005.4537399988621,True,114,lc.png,saint lucia,0.326171875
287,2724681.832775008,1004.317236002069,True,129,ml.png,mali,0.29960937499999996
288,2729026.081806005,1152.0971389980987,True,183,sy.png,syria,0.16289062499999998
289,2736829.383021002,2113.5518950033,True,17,bf.png,burkina faso,0.4046875
290,2744453.5976519985,1146.601883010473,True,127,mg.png,madagascar,0.30000000000000004
291,2750564.477132997,2622.2815690129064,True,58,et.png,ethiopia,0.28789062499999996
292,2757882.207142,4831.405481003225,True,47,dj.png,djibouti,0.5128906250000002
293,2771424.665458006,1940.2546889903024,False,175,sl.png,sierra leone,0.29960937499999996
294,2779020.4605550095,1613.5577329988591,True,47,dj.png,djibouti,0.4648437500000001
295,2785790.9960670075,2060.7745929886587,True,138,mw.png,malawi,0.3
296,2798084.972736004,2474.017972999718,False,92,im.png,isle of man,0.3
297,2808901.447869008,2842.493321993854,True,138,mw.png,malawi,0.3
298,2817244.8690370074,984.3471259954385,True,92,im.png,isle of man,0.3
299,2822550.521954996,1563.1598470062017,False,195,tv.png,tuvalu,0.3
300,2828268.340702998,1930.4795040083118,True,57,es.png,spain,0.3
301,2834001.3618910015,1362.2716840039939,True,195,tv.png,tuvalu,0.3
302,2839485.335366,751.2850460042246,True,57,es.png,spain,0.3
303,2843213.3792520035,892.0498619992286,True,89,id.png,indonesia,0.3
304,2847434.5340690054,959.1908080037683,True,80,gr.png,greece,0.3
305,2851606.183851007,1237.4428189941682,True,89,id.png,indonesia,0.3
306,2856766.428438001,974.0019250018522,True,80,gr.png,greece,0.3
307,2861046.179356999,1143.1809790083207,True,175,sl.png,sierra leone,0.29921875
308,2866828.7182030035,877.9966610018164,True,138,mw.png,malawi,0.250390625
309,2870818.1724400055,1044.5723860030994,False,17,bf.png,burkina faso,0.40507812499999996
310,2875794.5454760045,820.4093029927462,True,92,im.png,isle of man,0.250390625
311,2882174.6166530065,2955.7771359980106,True,23,bo.png,bolivia,0.30000000000000004
312,2890311.6349670016,1307.084943997208,True,195,tv.png,tuvalu,0.250390625
313,2894958.8370529963,826.622565000318,False,57,es.png,spain,0.349609375
314,2899630.0862780046,2719.7561999927275,True,89,id.png,indonesia,0.33710937499999993
315,2906357.644649004,819.0117579945363,True,80,gr.png,greece,0.250390625
316,2910743.3518260075,867.0152859995142,True,46,de.png,germany,0.3
317,2914848.3701850055,2714.345533997286,True,47,dj.png,djibouti,0.4902343750000001
318,2924863.6293570017,1404.2337529971264,True,46,de.png,germany,0.3
319,2929850.013087009,2695.5398809947073,True,115,li.png,liechtenstein,0.3
320,2943418.0360850003,856.7641039993614,True,57,es.png,spain,0.30000000000000004
321,2950942.3978100093,1241.426472988911,False,115,li.png,liechtenstein,0.3
322,2965403.7085550083,1420.537389989011,True,89,id.png,indonesia,0.2875
323,2972739.7087639985,4884.584152997937,True,47,dj.png,djibouti,0.5312500000000001
324,2987220.399141006,1253.9728120025247,False,46,de.png,germany,0.349609375
325,2991810.4131790022,inf,True,47,dj.png,djibouti,0.5480468750000002
326,3232767.8542770008,1004.8932509962469,False,46,de.png,germany,0.34687500000000004
327,3237183.615627,2051.2476470032707,True,47,dj.png,djibouti,0.4984375000000002
328,3246017.847215,3237.1472230008803,False,115,li.png,liechtenstein,0.297265625
329,3254704.429284,1428.438442002982,True,17,bf.png,burkina faso,0.36406249999999996
330,3260845.030249009,1902.4299579905346,True,129,ml.png,mali,0.24999999999999997
331,3265532.564602996,1093.150195010472,True,106,km.png,comoros,0.23437499999999997
332,3269709.776735006,1238.0935980034992,True,57,es.png,spain,0.2503906250000001
333,3273917.1203470035,2699.5717810057104,True,114,lc.png,saint lucia,0.3265625
334,3281455.6891060057,905.5550949997269,True,80,gr.png,greece,0.20078125
335,3285452.472780002,3068.954832997173,True,195,tv.png,tuvalu,0.275
336,3292499.5680660065,inf,True,47,dj.png,djibouti,0.5480468750000003
337,3300965.5533460025,873.95420399867,True,46,de.png,germany,0.34648437500000007
338,3305140.8967580064,1916.5368289980106,True,47,dj.png,djibouti,0.5476562500000003
339,3313550.954924009,1897.926967998501,True,89,id.png,indonesia,0.237890625
340,3319655.2016930073,5196.726501002442,True,23,bo.png,bolivia,0.300390625
341,3331960.24587701,998.8100039917044,True,92,im.png,isle of man,0.20078125
342,3336668.61459901,857.9899779865518,True,138,mw.png,malawi,0.20078125
343,3340930.3909699954,2008.3334260126576,True,47,dj.png,djibouti,0.5035156250000004
344,3348620.712382006,1291.692675003782,True,175,sl.png,sierra leone,0.24960937499999997
345,3354072.9752339977,2346.8482640017755,True,115,li.png,liechtenstein,0.29609374999999993
346,3365977.9094459955,3850.5307490122505,True,28,by.png,belarus,0.30000000000000004
347,3374479.722874996,inf,True,124,mc.png,monaco,0.250390625
348,3380394.8249050006,1013.3980609974824,True,132,mo.png,macao,0.15117187499999998
349,3384632.972938998,1746.1713700029068,True,45,cz.png,czechia,0.167578125
350,3391952.6080049984,1284.5800619977526,True,127,mg.png,madagascar,0.2503906250000001
351,3397327.796206009,987.0734379948117,True,95,ir.png,iran,0.15117187499999998
352,3403131.079814004,1454.323234997224,True,153,pe.png,peru,0.15117187499999998
353,3407421.6262550037,4684.359874998219,True,41,cr.png,costa rica,0.250390625
354,3421632.2601650027,1018.8229890046641,True,46,de.png,germany,0.3460937500000001
355,3426353.4282850013,1196.401873006951,True,143,ne.png,niger,0.15117187499999998
356,3430527.7464160025,1356.0090020038188,True,160,pw.png,palau,0.15117187499999998
357,3435084.3435709975,886.246672002133,True,97,it.png,italy,0.15117187499999998
358,3439111.8654250023,inf,True,203,vc.png,saint vincent and the grenadines,0.348046875
359,3457658.464430002,1423.6310559934936,True,28,by.png,belarus,0.2503906250000001
360,3464527.768993008,1978.602958988864,True,47,dj.png,djibouti,0.4789062500000003
361,3474596.583412,1499.72672900185,True,56,er.png,eritrea,0.15117187499999998
362,3479768.213625008,2173.619421999436,True,0,ad.png,andorra,0.15117187499999998
363,3485421.394414996,913.9929720116779,True,71,ge.png,georgia,0.15117187499999998
364,3490658.4733850034,1318.0872579975985,True,203,vc.png,saint vincent and the grenadines,0.2984375
365,3500922.2713780035,1212.8032949985936,True,195,tv.png,tuvalu,0.22539062500000004
366,3505383.9886799976,1435.2191190123558,True,161,py.png,paraguay,0.15117187499999998
367,3510486.685558004,1048.0877399970777,True,119,lt.png,lithuania,0.26679687499999993
368,3514918.3365089996,909.4562340029515,True,164,rs.png,serbia,0.20078125
369,3518883.1693910034,1200.4316480015405,True,125,md.png,moldova,0.2910156250000001
370,3523573.986442003,1167.7231030045077,True,158,ps.png,palestine,0.3
371,3529137.083959009,4446.578925999347,False,124,mc.png,monaco,0.25468749999999996
372,3539669.2913410077,2354.989296000451,True,158,ps.png,palestine,0.3
373,3545384.850030998,1214.5730860065669,True,102,ke.png,kenya,0.3
374,3549486.083862008,1155.126426994335,True,93,in.png,india,0.3
375,3553520.1734059956,1107.0025510126725,True,102,ke.png,kenya,0.3
376,3558873.478880007,1012.7907959977165,True,93,in.png,india,0.3
377,3562754.9592709984,1398.9951820112765,True,13,ba.png,bosnia and herzegovina,0.3
378,3580796.626787007,3551.5789139899425,True,41,cr.png,costa rica,0.25625
379,3587845.61383001,2190.790315988008,False,13,ba.png,bosnia and herzegovina,0.3
380,3598539.8042629967,1261.3695400068536,True,158,ps.png,palestine,0.250390625
381,3603169.7518090075,2725.743221992627,True,115,li.png,liechtenstein,0.2964843749999999
382,3615607.3154979968,787.800776001066,True,102,ke.png,kenya,0.250390625
383,3619248.195920998,731.6817840035073,True,93,in.png,india,0.250390625
384,3622868.365668997,882.7972480067983,False,46,de.png,germany,0.34648437500000007
385,3626967.3030720004,1728.5843910067342,True,114,lc.png,saint lucia,0.326171875
386,3632454.2702740002,1488.571973997634,False,63,fr.png,france,0.3
387,3637562.219786996,954.3694330062717,True,91,il.png,israel,0.3
388,3641656.4107540036,inf,True,63,fr.png,france,0.3
389,3646804.496968005,812.0930089936592,True,91,il.png,israel,0.3
390,3650842.787849004,1389.4787220051512,False,13,ba.png,bosnia and herzegovina,0.349609375
391,3663710.8833140084,3189.8527419981547,True,58,et.png,ethiopia,0.28828124999999993
392,3670400.883577997,1264.4767989986576,True,117,lr.png,liberia,0.15117187499999998
393,3674964.1800649986,4586.933658997063,True,188,tj.png,tajikistan,0.3
394,3688392.2035040013,inf,True,47,dj.png,djibouti,0.5285156250000004
395,3697028.575760007,2072.8777420008555,True,188,tj.png,tajikistan,0.3
396,3703623.5489450046,878.194773002062,True,63,fr.png,france,0.250390625
397,3707631.3727140077,1617.1515640015714,False,47,dj.png,djibouti,0.5289062500000004
398,3714147.911235006,1007.351498992648,True,91,il.png,israel,0.250390625
399,3718550.206587999,1075.3115969998762,False,13,ba.png,bosnia and herzegovina,0.39921874999999996
400,3726665.430961002,2661.1078999997117,True,31,cd.png,democratic republic of the congo,0.29414062500000004
401,3736333.933054004,970.2963019954041,True,169,sc.png,seychelles,0.15117187499999998
402,3741491.381544998,1241.4257470085286,True,75,gi.png,gibraltar,0.3
403,3747204.558163008,3708.3367619924247,False,13,ba.png,bosnia and herzegovina,0.412109375
404,3760816.251315002,inf,False,75,gi.png,gibraltar,0.3
405,3769126.1621070006,1535.2889829957858,True,47,dj.png,djibouti,0.5042968750000003
406,3776078.642410008,1215.1179359937087,True,188,tj.png,tajikistan,0.250390625
407,3782270.953956002,1553.6705020056106,True,17,bf.png,burkina faso,0.363671875
408,3788821.2954619955,908.3412450128235,True,5,am.png,armenia,0.3
409,3795260.5759360013,2057.4907749979757,True,13,ba.png,bosnia and herzegovina,0.40703125000000007
410,3806964.709136009,1842.7341909995303,True,5,am.png,armenia,0.3
411,3811969.216493002,inf,True,75,gi.png,gibraltar,0.349609375
412,3817321.573410998,1050.277626011055,True,22,bn.png,brunei,0.3
413,3821417.336127008,1547.7641819887795,True,2,af.png,afghanistan,0.3
414,3829670.888231005,1384.8895129919983,True,22,bn.png,brunei,0.3
415,3834849.1333060083,939.3930009971373,True,2,af.png,afghanistan,0.3
416,3839738.9131109957,1203.1694760080427,True,187,th.png,thailand,0.15117187499999998
417,3844172.565026005,865.4065290032886,False,46,de.png,germany,0.34687500000000004
418,3848121.1574129993,1044.5811609970406,True,152,pa.png,panama,0.3
419,3852843.066734,822.8751139976084,True,10,au.png,australia,0.15117187499999998
420,3857030.726102006,1224.4511689930223,True,152,pa.png,panama,0.3
421,3861175.507802007,11555.718788993545,True,75,gi.png,gibraltar,0.39921874999999996
422,3877953.8996019983,1445.6552100018598,True,5,am.png,armenia,0.250390625
423,3882505.8919180008,1071.6407750006765,False,13,ba.png,bosnia and herzegovina,0.4316406250000001
424,3890883.574659005,1180.7924629976042,True,22,bn.png,brunei,0.250390625
425,3895113.5464700055,759.6646119928919,True,2,af.png,afghanistan,0.250390625
426,3900160.975238003,1011.1778610004112,False,75,gi.png,gibraltar,0.4371093749999999
427,3904741.926650997,1741.2371690007858,True,47,dj.png,djibouti,0.46093750000000033
428,4114074.580411005,1108.66172099486,True,75,gi.png,gibraltar,0.42656249999999984
429,4124023.8194039995,910.9237329973839,True,152,pa.png,panama,0.250390625
430,4127910.686062998,1730.3904750007205,True,13,ba.png,bosnia and herzegovina,0.43125000000000013
431,4139155.334217008,963.7986969901249,True,102,ke.png,kenya,0.20078125
432,4144523.9078919985,870.4168900004588,True,93,in.png,india,0.20078125
433,4148247.3745489987,1777.0756750106812,True,158,ps.png,palestine,0.20078125
434,4154405.368407999,1005.5518450099044,True,75,gi.png,gibraltar,0.42617187499999987
435,4160137.9180630026,1550.8456789976917,True,115,li.png,liechtenstein,0.29609374999999993
436,4178131.34599301,1056.2935559866019,True,13,ba.png,bosnia and herzegovina,0.3816406250000002
437,4187346.1787720006,1971.3390709948726,False,63,fr.png,france,0.29999999999999993
438,4192560.6849690084,817.9087959867902,True,91,il.png,israel,0.20078125
439,4196539.935460998,2966.8449520105496,True,23,bo.png,bolivia,0.3125
440,4203307.539401998,921.7286430066451,True,46,de.png,germany,0.2972656250000001
441,4207327.087045006,2168.056579991244,True,114,lc.png,saint lucia,0.31875
442,4213318.396570001,1545.8437170023099,True,188,tj.png,tajikistan,0.20078125
443,4218689.929842003,914.1480209948495,True,75,gi.png,gibraltar,0.3765624999999999
444,4227136.5782649955,1323.2415930107236,True,181,st.png,sao tome and principe,0.23710937500000015
445,4238044.182411002,1186.349333002232,True,124,mc.png,monaco,0.254296875
446,4243403.545670997,6596.276814001612,True,166,rw.png,rwanda,0.28515625
447,4253238.919814001,913.2096560057253,True,41,cr.png,costa rica,0.255859375
448,4258318.955857001,862.8756959950551,True,22,bn.png,brunei,0.20078125
449,4262233.124407997,2083.873756011948,True,17,bf.png,burkina faso,0.32578125
450,4270709.01962,972.3931070044637,True,2,af.png,afghanistan,0.20078125
451,4275552.438785002,966.1067169951275,True,63,fr.png,france,0.29960937499999996
452,4279598.312536997,1172.6902700029314,True,5,am.png,armenia,0.20078125
453,4283934.6627150085,2493.715980991721,True,186,tg.png,togo,0.23124999999999998
454,4289254.221404,2110.3041550088674,True,193,tr.png,turkey,0.15117187499999998
455,4294467.186394002,2591.9551179977134,True,39,cn.png,china,0.3
456,4301018.676250009,1155.438421992585,True,176,sm.png,san marino,0.3
457,4309674.020236009,923.8918669866398,True,39,cn.png,china,0.3
458,4313514.001792006,10405.944263998419,True,176,sm.png,san marino,0.3
459,4327756.604677008,979.2286129957065,True,99,jm.png,jamaica,0.3
460,4332223.101369004,795.9865419976413,True,57,es.png,spain,0.2007812500000001
461,4336669.373968005,1001.3368380023167,True,99,jm.png,jamaica,0.3
462,4341350.900197009,1445.9900599904358,True,166,rw.png,rwanda,0.236328125
463,4346026.484034009,1483.8866419885308,True,201,uy.png,uruguay,0.3
464,4351746.958646007,914.6012599952519,True,59,fi.png,finland,0.3
465,4356148.76625,1801.3080740058795,True,201,uy.png,uruguay,0.3
466,4364201.077368009,1403.8341059926897,True,59,fi.png,finland,0.3
467,4371739.748947002,779.2111390009522,True,39,cn.png,china,0.250390625
468,4375421.506614002,1600.1109240027145,True,176,sm.png,san marino,0.250390625
469,4383953.656273006,3925.13731299527,True,47,dj.png,djibouti,0.5105468750000004
470,4394980.357093009,inf,True,99,jm.png,jamaica,0.349609375
471,4399808.409008008,3149.119019987993,True,47,dj.png,djibouti,0.5226562500000004
472,4409633.201870005,1469.2811839925125,True,201,uy.png,uruguay,0.250390625
473,4415209.951162004,949.6099940007553,True,59,fi.png,finland,0.250390625
474,4421440.173602997,851.3679970055819,True,101,jp.png,japan,0.15117187499999998
475,4425115.665671998,1952.375733002089,True,47,dj.png,djibouti,0.49804687500000033
476,4436494.753191,1027.7625190066174,True,99,jm.png,jamaica,0.30000000000000004
477,4440697.691766007,1273.1956439968199,True,13,ba.png,bosnia and herzegovina,0.3320312500000002
478,4451887.435420008,884.2187779955566,True,152,pa.png,panama,0.20078125
479,4455799.67790001,1439.7432849947363,False,103,kg.png,kyrgyzstan,0.3
480,4464721.983823998,982.270228006877,True,182,sv.png,el salvador,0.3
481,4469492.485752009,1290.4210509881377,False,103,kg.png,kyrgyzstan,0.3
482,4476455.913536003,7446.149059994146,False,182,sv.png,el salvador,0.3
483,4486173.084590002,1080.157007003203,True,75,gi.png,gibraltar,0.32695312499999996
484,4493447.035457008,inf,True,79,gq.png,equatorial guinea,0.3
485,4505870.994896002,1826.0041930042207,True,23,bo.png,bolivia,0.300390625
486,4511644.813646999,1368.3650449961424,False,79,gq.png,equatorial guinea,0.3
487,4520282.295858007,1342.1787179978564,True,63,fr.png,france,0.24999999999999997
488,4524739.014373001,1936.764498008415,True,103,kg.png,kyrgyzstan,0.250390625
489,4532449.19667,1448.529397007078,True,182,sv.png,el salvador,0.250390625
490,4538094.601739009,1576.9594159936532,True,115,li.png,liechtenstein,0.27773437499999987
491,4544577.087416008,1260.4521049940959,False,47,dj.png,djibouti,0.5226562500000004
492,4551588.096182007,911.9722789917141,True,165,ru.png,russia,0.3
493,4555496.014172997,1303.0730250030756,True,20,bi.png,burundi,0.3
494,4560832.440412996,1070.7446440067142,True,165,ru.png,russia,0.3
495,4564900.492233995,1067.453155003488,True,20,bi.png,burundi,0.3
496,4570284.818658998,3010.0960539998487,True,79,gq.png,equatorial guinea,0.349609375
497,4891729.040929,1199.3709730012342,True,165,ru.png,russia,0.250390625
498,4896511.921081997,3338.924789001234,True,79,gq.png,equatorial guinea,0.32499999999999996
499,4909394.849279997,7945.687483007088,True,20,bi.png,burundi,0.27460937500000004
500,4922081.431448998,2657.1276390021667,True,47,dj.png,djibouti,0.5222656250000004
501,4929251.018316004,1224.8335560001433,True,99,jm.png,jamaica,0.2503906250000001
502,4935357.175929995,1505.6564810080454,True,176,sm.png,san marino,0.20078125
503,4944248.840740998,974.0072440039366,True,201,uy.png,uruguay,0.20078125
504,4950067.9603339955,955.3809880018234,True,39,cn.png,china,0.20078125
505,4954316.450375001,1561.8719350025058,True,59,fi.png,finland,0.20078125
506,4959876.654310007,2764.6088879993185,True,47,dj.png,djibouti,0.5250000000000005
507,4968562.138631009,2137.409674992785,False,182,sv.png,el salvador,0.29999999999999993
508,4976294.551152009,2251.9178439974785,True,103,kg.png,kyrgyzstan,0.22578125
509,4986235.04148901,1181.959619993344,True,31,cd.png,democratic republic of the congo,0.24453125000000006
510,4996978.130924996,3159.74457000196,False,79,gq.png,equatorial guinea,0.35429687499999996
511,5010308.096277004,inf,True,47,dj.png,djibouti,0.5253906250000004
512,5026278.209103999,1471.3249949999154,True,89,id.png,indonesia,0.18906249999999997
513,5031469.523934997,1744.108014012687,True,58,et.png,ethiopia,0.27617187499999996
514,5038004.973171002,2084.3590330043808,True,114,lc.png,saint lucia,0.2964843749999999
515,5044327.376507005,974.9502759948373,True,86,hr.png,croatia,0.15117187499999998
516,5048922.272690005,1137.9546999959275,True,20,bi.png,burundi,0.27421875000000007
517,5056087.805443997,1504.4316640123725,True,182,sv.png,el salvador,0.29960937499999996
518,5062494.584635002,2073.0685390010476,True,47,dj.png,djibouti,0.5250000000000005
519,5068414.701372007,4592.653572995216,True,129,ml.png,mali,0.29960937499999996
520,5076559.426277002,5795.51106199529,True,79,gq.png,equatorial guinea,0.3609374999999999
521,5089049.480992005,914.4065759908408,True,135,mt.png,malta,0.15117187499999998
522,5093237.703103005,975.6587830046192,True,162,qa.png,qatar,0.15117187499999998
523,5098292.758916999,1791.2818120094016,True,207,ws.png,samoa,0.15117187499999998
524,5103341.004633999,5491.836373999715,True,110,kw.png,kuwait,0.3
525,5113178.391483001,3041.573198002763,True,140,my.png,malaysia,0.3
526,5119852.482318005,1463.0233799982816,True,110,kw.png,kuwait,0.3
527,5124980.239815006,878.1324269948527,True,140,my.png,malaysia,0.3
528,5128995.813715999,3025.8403710033745,True,47,dj.png,djibouti,0.5253906250000004
529,5136014.079317,1093.5841559981927,True,40,co.png,colombia,0.3
530,5140564.537668004,1051.949758999981,True,179,sr.png,suriname,0.3
531,5146986.882117999,1218.4392780037597,True,40,co.png,colombia,0.3
532,5151663.056727004,3395.0282540023327,True,179,sr.png,suriname,0.3
533,5158237.827906007,2198.4474789928645,True,129,ml.png,mali,0.29921875
534,5163285.291118998,2492.6915030088276,True,32,cf.png,central african republic,0.3
535,5173493.281639006,1272.4335379898548,True,110,kw.png,kuwait,0.250390625

