trial,start_time,rt,correct,fact_id,question,answer,alpha
1,98082.52720000746,6895.509399997536,True,127,mg.png,madagascar,0.3
2,112721.78399999393,5141.596100002062,True,127,mg.png,madagascar,0.3
3,124199.75980000163,3159.665099999984,True,1,ae.png,united arab emirates,0.3
4,140456.62060000177,1791.3881999993464,True,1,ae.png,united arab emirates,0.3
5,161102.82139999617,2305.8399000001373,True,159,pt.png,portugal,0.3
6,168972.97220000473,2326.02589999442,True,127,mg.png,madagascar,0.288671875
7,177523.2690999983,1557.3986999952467,True,159,pt.png,portugal,0.3
8,184597.62270000647,2636.3118999870494,True,11,aw.png,aruba,0.3
9,192799.99349999707,5394.877300001099,True,1,ae.png,united arab emirates,0.349609375
10,209730.10800000338,2071.3108999916585,True,11,aw.png,aruba,0.3
11,216533.65060000215,1693.9856999961194,True,64,ga.png,gabon,0.3
12,223343.80489999603,1548.701699997764,True,196,tw.png,taiwan,0.3
13,229990.68909999914,4901.614999995218,True,64,ga.png,gabon,0.3
14,240210.97010000085,12237.061499996344,False,196,tw.png,taiwan,0.3
15,254690.1865999971,1719.679300003918,True,159,pt.png,portugal,0.250390625
16,261641.14779999363,1985.4706000041915,True,1,ae.png,united arab emirates,0.30000000000000004
17,273139.07580000523,1966.3741999975173,True,11,aw.png,aruba,0.250390625
18,279175.06959999446,2957.5253000075463,True,64,ga.png,gabon,0.349609375
19,286077.5772000052,inf,True,104,kh.png,cambodia,0.3
20,299103.12729999714,4451.123400009237,True,196,tw.png,taiwan,0.349609375
21,309592.0699999988,1731.8800000066403,True,104,kh.png,cambodia,0.3
22,317135.95900000655,10118.56619999162,False,127,mg.png,madagascar,0.33828125
23,337320.12420000683,5533.094099999289,True,64,ga.png,gabon,0.39921874999999996
24,346790.4658000043,1847.7416999958223,True,196,tw.png,taiwan,0.34921875
25,353415.26819999854,1655.8838000055403,True,0,ad.png,andorra,0.3
26,360412.32319999835,1562.1740000060527,True,42,cu.png,cuba,0.3
27,366452.9925999959,7204.717300002812,True,0,ad.png,andorra,0.3
28,378229.2417999997,2448.782499996014,True,42,cu.png,cuba,0.3
29,385795.8085999999,inf,True,64,ga.png,gabon,0.4488281249999999
30,405257.99680000637,2450.0380999961635,True,104,kh.png,cambodia,0.262109375
31,413115.8587999962,9353.736500008381,True,64,ga.png,gabon,0.47343749999999996
32,427763.2486000075,8050.1004999969155,True,127,mg.png,madagascar,0.3824218749999999
33,442238.99650000385,3707.566199998837,True,0,ad.png,andorra,0.349609375
34,450906.5849000035,3555.705199993099,True,64,ga.png,gabon,0.48554687499999993
35,458698.4553000075,1566.60269999702,True,42,cu.png,cuba,0.250390625
36,464909.7807000071,9127.048799986369,True,196,tw.png,taiwan,0.398828125
37,478937.72299999546,3184.0654000116047,True,127,mg.png,madagascar,0.4039062499999999
38,487552.2878000047,2381.184999991092,True,64,ga.png,gabon,0.48515624999999996
39,494638.98200000403,1442.9347999976017,True,0,ad.png,andorra,0.34921875
40,500771.50560000155,8612.947400004487,True,196,tw.png,taiwan,0.42656249999999996
41,513814.18570000096,2856.385399994906,True,1,ae.png,united arab emirates,0.32304687500000007
42,526753.4996000031,1836.931400001049,True,64,ga.png,gabon,0.484765625
43,532477.323500003,3832.1532999980263,True,127,mg.png,madagascar,0.40507812499999996
44,541853.737700003,3318.983199991635,True,196,tw.png,taiwan,0.427734375
45,549765.0376999954,1901.3042000005953,True,22,bn.png,brunei,0.3
46,556819.5118000003,2233.795000007376,True,131,mn.png,mongolia,0.3
47,564882.4557000044,6715.001999997185,False,22,bn.png,brunei,0.3
48,573836.6003999981,4921.128600006341,True,131,mn.png,mongolia,0.3
49,584863.1354999961,4599.834500011639,True,64,ga.png,gabon,0.534375
50,593676.2371000077,5609.702399990056,True,0,ad.png,andorra,0.387109375
51,604420.5368999974,1554.4499999959953,True,64,ga.png,gabon,0.4847656250000001
52,610040.0662000029,1809.1654000018025,True,196,tw.png,taiwan,0.42734375
53,616274.1360999935,2172.5563000072725,True,127,mg.png,madagascar,0.4046875
54,623653.6338000005,1911.9958999945084,True,22,bn.png,brunei,0.250390625
55,631653.8284999988,1926.101799996104,True,131,mn.png,mongolia,0.250390625
56,639388.3350999968,4801.144400000339,True,159,pt.png,portugal,0.29999999999999993
57,649859.6345999977,4903.027300009853,True,0,ad.png,andorra,0.43671874999999993
58,659529.6488000022,2256.4545999921393,True,11,aw.png,aruba,0.22499999999999998
59,665860.2023999993,2282.559200000833,True,1,ae.png,united arab emirates,0.3109375000000001
60,679100.1927000034,3374.3169999943348,True,0,ad.png,andorra,0.4371093749999999
61,687299.1583999974,3573.3668000029866,True,64,ga.png,gabon,0.48515625000000007
62,694695.6236999977,9982.80589999922,True,196,tw.png,taiwan,0.476953125
63,709616.0995999962,5701.123400009237,True,104,kh.png,cambodia,0.275
64,723977.0244999963,2947.7770000085,True,196,tw.png,taiwan,0.5015625
65,731812.691900006,2176.889999987907,True,127,mg.png,madagascar,0.404296875
66,739693.2701000042,1525.965199994971,True,0,ad.png,andorra,0.43671874999999993
67,745892.8115000017,4266.566000005696,True,196,tw.png,taiwan,0.512890625
68,754415.4810000036,1718.5407999932067,True,159,pt.png,portugal,0.250390625
69,761551.6289999941,2872.801800011075,True,64,ga.png,gabon,0.5136718750000001
70,768862.5305000023,2356.57980000542,True,202,uz.png,uzbekistan,0.3
71,779466.3234000036,1678.4800000023097,True,196,tw.png,taiwan,0.5125000000000001
72,785542.3584999953,2083.9900999999372,True,202,uz.png,uzbekistan,0.3
73,794119.8506999935,1887.6325000019278,True,64,ga.png,gabon,0.5132812500000001
74,800322.5523000001,2118.092400007299,True,35,ci.png,ivory coast,0.3
75,813117.6396999945,2059.3838000058895,True,0,ad.png,andorra,0.43632812499999996
76,819522.1736999956,2237.2041000053287,True,35,ci.png,ivory coast,0.3
77,829514.7513999982,1595.263099996373,True,196,tw.png,taiwan,0.5121093750000001
78,835496.1502000078,2249.254899987136,True,42,cu.png,cuba,0.22499999999999998
79,842366.1627999973,2164.147100003902,True,202,uz.png,uzbekistan,0.262109375
80,850480.9327999974,1512.8294000023743,True,64,ga.png,gabon,0.4636718750000002
81,856041.592900001,2574.5808000065153,True,127,mg.png,madagascar,0.41015625
82,866167.769599997,1548.372000004747,True,124,mc.png,monaco,0.3
83,872917.8176999994,5114.980500002275,True,35,ci.png,ivory coast,0.349609375
84,884323.7659000006,3216.692600006354,True,124,mc.png,monaco,0.3
85,892049.1139000078,2858.1305999978213,True,196,tw.png,taiwan,0.5156250000000001
86,898976.7719999945,5431.285500002559,True,0,ad.png,andorra,0.47968749999999993
87,908512.902500006,1952.720799992676,True,76,gl.png,greenland,0.3
88,916521.8121999933,3522.916300003999,True,35,ci.png,ivory coast,0.39921874999999996
89,928373.7480999989,1815.4391999996733,True,76,gl.png,greenland,0.3
90,934892.745899997,1362.043500004802,True,0,ad.png,andorra,0.430078125
91,940979.172899999,1964.7734000027413,True,196,tw.png,taiwan,0.46601562500000016
92,946883.9675000054,1576.5055999945616,True,124,mc.png,monaco,0.250390625
93,952782.0241000009,2051.344899999094,True,35,ci.png,ivory coast,0.398828125
94,961993.0708000029,2028.6969000007957,True,12,az.png,azerbaijan,0.3
95,974953.4442000004,inf,False,22,bn.png,brunei,0.29999999999999993
96,1002748.7952999945,3266.194399999222,False,12,az.png,azerbaijan,0.3
97,1018808.0523999961,6336.326100004953,True,76,gl.png,greenland,0.349609375
98,1029603.620599999,2707.120399994892,True,127,mg.png,madagascar,0.410546875
99,1037505.390899998,2852.867100009462,True,35,ci.png,ivory coast,0.41953125
100,1045920.7458000019,2103.457499993965,True,131,mn.png,mongolia,0.21796875
101,1054486.7878000077,1988.7064999931026,True,104,kh.png,cambodia,0.262109375
102,1061699.9961999971,1579.3989000087604,True,76,gl.png,greenland,0.30000000000000004
103,1068008.693099997,2925.4910000017844,True,12,az.png,azerbaijan,0.33710937499999993
104,1078943.0541000038,5885.836100002052,True,64,ga.png,gabon,0.5132812500000002
105,1088844.6776000056,2375.962399994023,True,1,ae.png,united arab emirates,0.30429687500000013
106,1101008.1296999997,1579.582899998175,True,64,ga.png,gabon,0.4636718750000003
107,1106601.9840999944,2726.9725000075996,True,35,ci.png,ivory coast,0.42304687500000004
108,1116070.941900005,2196.971500001382,True,22,bn.png,brunei,0.29960937499999996
109,1123411.9040000078,1407.001899991883,True,0,ad.png,andorra,0.38046875
110,1129160.7963999994,4985.709100001492,False,202,uz.png,uzbekistan,0.31171874999999993
111,1141306.8954000045,4217.567699990701,True,12,az.png,azerbaijan,0.3374999999999999
112,1153692.4499000015,4942.212800000561,True,196,tw.png,taiwan,0.46640625000000013
113,1163043.7226000067,2439.813399993116,True,127,mg.png,madagascar,0.4046875
114,1179847.7279999934,3589.9983000126667,True,35,ci.png,ivory coast,0.42656250000000007
115,1189966.883800007,1821.417799990857,True,53,ee.png,estonia,0.3
116,1197950.4935000003,1686.9788000041153,True,39,cn.png,china,0.3
117,1203935.873800001,1489.3014999977313,True,53,ee.png,estonia,0.3
118,1210333.0652000005,1353.1314999999013,True,39,cn.png,china,0.3
119,1215654.3292999994,6598.310200002976,True,202,uz.png,uzbekistan,0.336328125
120,1228895.603600002,1424.4790999945253,True,4,al.png,albania,0.3
121,1235494.5740999975,2598.233500000555,True,60,fj.png,fiji,0.3
122,1243967.3227000022,6532.615599993616,False,4,al.png,albania,0.3
123,1252743.3320999988,2049.683699995745,True,60,fj.png,fiji,0.3
124,1259933.8069000077,1300.6189999869093,True,53,ee.png,estonia,0.250390625
125,1266021.2061000057,2033.2471000002697,True,35,ci.png,ivory coast,0.41914062500000004
126,1275149.8846000032,1226.908600001363,True,39,cn.png,china,0.250390625
127,1280119.0073000034,1989.097700003069,False,12,az.png,azerbaijan,0.3378906249999999
128,1291305.2049999968,2821.294499997981,True,196,tw.png,taiwan,0.48007812500000013
129,1298826.3819999993,4891.567200000398,True,64,ga.png,gabon,0.5132812500000004
130,1308161.5466000075,1652.5036999955773,True,4,al.png,albania,0.250390625
131,1315075.4468999947,1873.6374000001233,True,60,fj.png,fiji,0.250390625
132,1321293.488299998,3474.387800000841,False,64,ga.png,gabon,0.5308593750000004
133,1330342.9938000045,2976.0297000030987,False,202,uz.png,uzbekistan,0.33984375
134,1354707.0888000017,8759.822599997278,True,64,ga.png,gabon,0.5320312500000004
135,1367312.1611999958,1988.8091000029817,True,196,tw.png,taiwan,0.47968750000000016
136,1373352.8837000048,1942.0329999993555,True,76,gl.png,greenland,0.2503906250000001
137,1379779.0424999986,1420.423400006257,True,124,mc.png,monaco,0.20078125
138,1385490.4100999993,2108.0428999995347,True,127,mg.png,madagascar,0.40351562499999993
139,1394641.254000002,2628.123699992895,True,35,ci.png,ivory coast,0.42421875
140,1403137.314599997,2338.7070000027306,True,64,ga.png,gabon,0.5316406250000004
141,1409342.1548000043,2267.978399991989,True,22,bn.png,brunei,0.27656249999999993
142,1416681.7546999955,1971.0219000116922,True,78,gn.png,guinea,0.3
143,1424832.4356999947,1902.0021000034176,True,83,gy.png,guyana,0.3
144,1434718.866299998,7435.836999997031,False,78,gn.png,guinea,0.3
145,1444395.0286000036,2226.100899992045,True,83,gy.png,guyana,0.3
146,1453302.567599996,4074.2725000018254,True,64,ga.png,gabon,0.5812500000000005
147,1461310.099800001,4663.0250000017695,False,12,az.png,azerbaijan,0.38749999999999984
148,1475306.8587000016,2306.3360999948345,True,64,ga.png,gabon,0.5808593750000005
149,1481288.9912999962,1456.077700000722,True,196,tw.png,taiwan,0.46445312500000013
150,1487634.5225999975,2689.842599997297,False,78,gn.png,guinea,0.349609375
151,1513518.0915999953,10828.287700002082,False,64,ga.png,gabon,0.6054687500000006
152,1526587.377799995,9654.497399999062,False,83,gy.png,guyana,0.349609375
153,1542169.4429000053,3656.960299995262,True,64,ga.png,gabon,0.6144531250000006
154,1549645.8073999966,3732.7220000005327,True,12,az.png,azerbaijan,0.41445312499999987
155,1561411.7186999938,6526.985500007868,False,78,gn.png,guinea,0.39921874999999996
156,1570177.3810000014,1725.2580999918282,True,64,ga.png,gabon,0.6140625000000006
157,1575718.8265000004,2299.8364999948535,True,35,ci.png,ivory coast,0.423828125
158,1585196.5261000004,4010.657100006938,True,83,gy.png,guyana,0.384375
159,1594652.5056999964,1779.7136000008322,True,64,ga.png,gabon,0.5644531250000006
160,1600421.9715999933,6130.125100011472,True,202,uz.png,uzbekistan,0.38945312499999996
161,1613121.4968999992,3137.9057000014,True,78,gn.png,guinea,0.430078125
162,1623273.019600005,2178.8150999927893,True,12,az.png,azerbaijan,0.4140624999999999
163,1634388.7492000067,2858.154799992917,True,83,gy.png,guyana,0.384765625
164,1642606.5588000056,3547.83169999416,True,202,uz.png,uzbekistan,0.396875
165,1652057.185700003,4134.658600000199,True,78,gn.png,guinea,0.43125
166,1661817.5639999972,2243.8370000019204,True,127,mg.png,madagascar,0.40312499999999996
167,1669510.4571999982,2107.1211999952793,True,53,ee.png,estonia,0.20625
168,1677013.433500004,1522.582999998005,True,196,tw.png,taiwan,0.4304687500000002
169,1683049.7462000058,1412.9064000009093,True,39,cn.png,china,0.20078125
170,1688110.4407999956,2901.3047000044025,True,64,ga.png,gabon,0.5898437500000006
171,1695010.3282000055,2943.245499991346,True,35,ci.png,ivory coast,0.42421875
172,1704051.0747999942,2511.121800009394,True,1,ae.png,united arab emirates,0.29843750000000013
173,1716029.952099998,2932.139299998991,True,78,gn.png,guinea,0.43242187500000007
174,1726793.423199997,2024.9177000077907,True,64,ga.png,gabon,0.5402343750000005
175,1732916.4535000017,3431.7951999984216,True,12,az.png,azerbaijan,0.41445312499999987
176,1743449.2541000072,1791.573199996492,True,83,gy.png,guyana,0.384375
177,1751978.8229999975,2684.18650000263,True,202,uz.png,uzbekistan,0.398046875
178,1760537.878300005,1801.0290999955032,True,4,al.png,albania,0.20078125
179,1767229.2742999997,1804.7114999936894,True,0,ad.png,andorra,0.33085937500000007
180,1773436.3871999958,2091.429699998116,True,60,fj.png,fiji,0.20546875
181,1779622.7566000016,4130.695100000594,True,78,gn.png,guinea,0.4570312500000001
182,1789437.7832000027,1624.1220999946818,True,8,ar.png,argentina,0.3
183,1796549.8794000014,2707.6962999999523,True,104,kh.png,cambodia,0.27031249999999996
184,1805895.9565999976,1431.2161999987438,True,8,ar.png,argentina,0.3
185,1811970.5810000014,4141.212400005432,True,35,ci.png,ivory coast,0.42460937499999996
186,1822554.2391000055,1783.6794999893755,True,78,gn.png,guinea,0.45664062500000013
187,1829404.0386999985,3640.8927000011317,True,12,az.png,azerbaijan,0.4390624999999999
188,1840840.3629999957,3535.0032999995165,True,83,gy.png,guyana,0.40898437500000007
189,1851058.388000005,2301.302899999544,True,127,mg.png,madagascar,0.3863281249999999
190,1858746.2883999979,2680.9834000014234,True,202,uz.png,uzbekistan,0.41015625
191,1867688.0324999946,1537.0865000006743,True,8,ar.png,argentina,0.250390625
192,1874062.3035000027,1885.060100001283,True,64,ga.png,gabon,0.5273437500000006
193,1879613.2038000068,3613.3395999933127,True,12,az.png,azerbaijan,0.4605468749999999
194,1890335.8261999965,1758.86600000388,True,78,gn.png,guinea,0.45625000000000016
195,1898824.5329000056,3001.657899993006,True,159,pt.png,portugal,0.275
196,1906984.0659000038,1650.970899994718,True,83,gy.png,guyana,0.4085937500000001
197,1914098.3422999997,1674.8094000068959,True,140,my.png,malaysia,0.3
198,1925479.9230000062,2746.0998999886215,True,12,az.png,azerbaijan,0.48515624999999996
199,1934250.0542000053,1398.8169999937527,False,140,my.png,malaysia,0.3
200,1943293.8517000002,2670.686500001466,True,11,aw.png,aruba,0.23085937499999998
201,1949977.0642000076,3701.593499994604,True,202,uz.png,uzbekistan,0.410546875
202,1960011.1250000047,5946.787399996538,True,35,ci.png,ivory coast,0.44609374999999996
203,1972432.3995000012,4084.830199994147,True,12,az.png,azerbaijan,0.48710937499999996
204,1984463.4807999972,4967.437800005544,True,78,gn.png,guinea,0.4613281250000001
205,1997752.2460000035,3923.64130000351,True,140,my.png,malaysia,0.349609375
206,2008364.5042999997,1448.5733000037726,True,83,gy.png,guyana,0.35898437500000013
207,2016161.2561999937,1840.5618000105023,True,64,ga.png,gabon,0.5238281250000006
208,2022313.2533000025,2059.213300002739,True,12,az.png,azerbaijan,0.48671875
209,2032336.5797000006,3565.098899998702,True,35,ci.png,ivory coast,0.4957031249999999
210,2042971.415699998,1784.217900000047,True,140,my.png,malaysia,0.34921875
211,2050642.977700001,2460.4409000021406,True,35,ci.png,ivory coast,0.49843749999999987
212,2059225.2372999936,1806.0220000045374,True,78,gn.png,guinea,0.41171875000000013
213,2066084.770200003,1849.8843999984674,True,34,ch.png,switzerland,0.3
214,2075992.9664999945,1966.0284999990836,True,132,mo.png,macao,0.3
215,2084811.328800002,2250.7269999915734,True,34,ch.png,switzerland,0.3
216,2094486.5304999985,1169.8098000050522,True,132,mo.png,macao,0.3
217,2100132.4685,2747.788399996236,True,35,ci.png,ivory coast,0.5019531249999999
218,2108960.092199995,1540.714200004004,True,12,az.png,azerbaijan,0.486328125
219,2129999.9780999934,1926.3840000056662,True,202,uz.png,uzbekistan,0.41015625
220,2137598.775799997,4272.4767000037245,True,196,tw.png,taiwan,0.43085937500000016
221,2146238.8782000053,1446.3248999961652,True,34,ch.png,switzerland,0.250390625
222,2155691.443500007,1784.553299992811,True,140,my.png,malaysia,0.312109375
223,2162945.8113,1714.4968000063673,True,132,mo.png,macao,0.250390625
224,2169443.8311999985,2473.5083999983035,True,35,ci.png,ivory coast,0.5015624999999999
225,2177517.393799993,4990.03200000152,True,64,ga.png,gabon,0.5343750000000007
226,2187172.078999996,4615.856100005098,True,12,az.png,azerbaijan,0.48828125
227,2198364.158199998,1723.1342000016011,True,42,cu.png,cuba,0.175390625
228,2203987.211600004,2789.961899994407,True,22,bn.png,brunei,0.2769531249999999
229,2212084.583799995,1469.5389000116847,True,133,mq.png,martinique,0.3
230,2223624.412499994,2549.176400003489,True,35,ci.png,ivory coast,0.5097656249999999
231,2232567.5660999985,1454.2231999952346,True,133,mq.png,martinique,0.3
232,2242085.901300001,2831.5261999960057,True,64,ga.png,gabon,0.5347656250000007
233,2248825.7194000036,1252.5500999907963,True,8,ar.png,argentina,0.20078125
234,2255038.3626999976,3824.105200008489,True,12,az.png,azerbaijan,0.5378906250000001
235,2267655.442699994,2270.721600012388,True,202,uz.png,uzbekistan,0.398828125
236,2275537.258600001,1557.5435999925248,True,12,az.png,azerbaijan,0.4882812500000001
237,2285064.1180999954,2120.57660000585,True,35,ci.png,ivory coast,0.5078124999999999
238,2293382.860800004,2791.853799993638,True,133,mq.png,martinique,0.324609375
239,2306687.419399997,1216.6539000030607,True,159,pt.png,portugal,0.22539062500000004
240,2312587.5228999937,2275.5671000052243,True,127,mg.png,madagascar,0.37421874999999993
241,2320363.7870999957,4145.0272000073455,True,64,ga.png,gabon,0.5539062500000007
242,2329942.684499998,2756.6318000024185,True,77,gm.png,gambia,0.3
243,2338243.038600005,2253.05049998872,True,1,ae.png,united arab emirates,0.29648437500000013
244,2350910.783500003,3355.1652000024915,True,77,gm.png,gambia,0.3
245,2359167.9584999946,3120.3646000069566,True,64,ga.png,gabon,0.5785156250000008
246,2366978.730600007,2356.046599991154,True,35,ci.png,ivory coast,0.4957031249999999
247,2375134.3783000046,2625.6731999893673,True,133,mq.png,martinique,0.33203125
248,2385078.8998000063,1800.3006999930367,True,64,ga.png,gabon,0.5781250000000008
249,2390968.255400003,11052.54829999432,False,78,gn.png,guinea,0.4121093750000001
250,2404260.850899998,1787.8797000013292,True,196,tw.png,taiwan,0.3812500000000002
251,2410294.682000007,1712.0717999930494,True,77,gm.png,gambia,0.250390625
252,2416522.0988999936,1726.5165000134148,True,12,az.png,azerbaijan,0.43867187500000016
253,2427120.771300004,2102.8212999952957,True,64,ga.png,gabon,0.5535156250000007
254,2433101.7640000065,2292.210999992676,False,106,km.png,comoros,0.3
255,2443394.2559999996,5520.069599995855,True,104,kh.png,cambodia,0.273828125
256,2454032.647300002,7068.137199996505,True,106,km.png,comoros,0.3
257,2466170.073200003,6600.8013999960385,True,140,my.png,malaysia,0.36171875
258,2478206.103499993,2103.5361000103876,True,35,ci.png,ivory coast,0.48906249999999996
259,2486540.441899997,2345.5918999966234,True,83,gy.png,guyana,0.32187500000000013
260,2494491.511,2618.2487000045367,True,133,mq.png,martinique,0.33476562499999996
261,2504510.302099996,1439.65120000951,True,34,ch.png,switzerland,0.20078125
262,2512690.582700001,9430.972100002691,True,106,km.png,comoros,0.349609375
263,2530058.7959999973,3893.961499998346,True,140,my.png,malaysia,0.38554687499999996
264,2539095.3767000027,2404.4963999912143,True,64,ga.png,gabon,0.5476562500000007
265,2545358.7174999993,2697.161300005857,True,202,uz.png,uzbekistan,0.4078125
266,2553710.1446000016,2508.2029000041075,True,132,mo.png,macao,0.20078125
267,2561576.0224999976,2546.8205000068992,True,106,km.png,comoros,0.39921874999999996
268,2570086.8395,2452.111899998039,True,131,mn.png,mongolia,0.21289062499999997
269,2577264.7530999966,10873.67020000238,True,78,gn.png,guinea,0.46171875000000007
270,2594501.480000006,1847.8921999922022,True,106,km.png,comoros,0.398828125
271,2601051.342399995,1408.809100001119,True,78,gn.png,guinea,0.4613281250000001
272,2607420.8283000044,1607.6710999915376,True,140,my.png,malaysia,0.3359375
273,2615127.6555999937,3496.079000004567,True,35,ci.png,ivory coast,0.492578125
274,2624191.0752999973,1499.2957000066526,True,76,gl.png,greenland,0.2250000000000001
275,2630289.7781000063,1651.5894999904558,True,64,ga.png,gabon,0.5410156250000008
276,2635921.2163000046,2569.0271999919787,True,82,gw.png,guinea bissau,0.3
277,2658970.3214000035,4204.5056999926455,False,133,mq.png,martinique,0.33828125
278,2666904.679600004,2456.9343000035733,True,82,gw.png,guinea bissau,0.3
279,2676401.5576999956,1754.585200003814,True,106,km.png,comoros,0.36171875
280,2682979.288600007,2685.2771999980323,True,78,gn.png,guinea,0.47343750000000007
281,2690112.3458000077,2069.7176999961957,True,17,bf.png,burkina faso,0.3
282,2711658.031500003,4862.814099993557,True,202,uz.png,uzbekistan,0.408203125
283,2722687.630900007,5943.263299996033,True,17,bf.png,burkina faso,0.3
284,2736551.9918000065,3614.0910999965854,True,82,gw.png,guinea bissau,0.349609375
285,2749087.3514999985,2855.543199999258,True,35,ci.png,ivory coast,0.49296874999999996
286,2758148.0262999977,2883.6666999994777,True,78,gn.png,guinea,0.478515625
287,2765917.8786999984,1792.704799998086,True,64,ga.png,gabon,0.5148437500000007
288,2771615.7504000003,1836.3021999974735,True,77,gm.png,gambia,0.20078125
289,2779542.414099997,2322.7996000056155,False,17,bf.png,burkina faso,0.349609375
290,2791945.7552999957,1673.959600011818,True,82,gw.png,guinea bissau,0.30000000000000004
291,2803179.794099997,2763.598500008695,True,162,qa.png,qatar,0.3
292,2813180.2010999965,1392.855300000403,True,48,dk.png,denmark,0.3
293,2820052.5614999933,2403.007500004489,True,162,qa.png,qatar,0.3
294,2826892.086000007,1975.4110999931581,True,48,dk.png,denmark,0.3
295,2833486.8502000025,5319.4296000003815,True,78,gn.png,guinea,0.48124999999999996
296,2843198.8974999986,2610.5706000090577,True,17,bf.png,burkina faso,0.36250000000000004
297,2852898.098999998,2316.8363000005484,True,35,ci.png,ivory coast,0.4917968749999999
298,2861439.4955000025,9548.048600001726,False,133,mq.png,martinique,0.34257812499999996
299,2875602.438800008,2836.5615999936126,True,106,km.png,comoros,0.36210937499999996
300,2883254.391099996,1592.50369999744,True,162,qa.png,qatar,0.250390625
301,2889391.352599996,1183.8079000008292,True,48,dk.png,denmark,0.250390625
302,2895424.511899997,4222.54600000428,True,12,az.png,azerbaijan,0.4882812500000001
303,2905771.007400006,2027.3280999972485,True,78,gn.png,guinea,0.4707031249999999
304,2913099.979999999,3212.149700004142,True,12,az.png,azerbaijan,0.5003906250000002
305,2922691.0819000043,2219.441299995873,True,17,bf.png,burkina faso,0.3558593750000001
306,2933246.699800002,2392.2995000029914,True,202,uz.png,uzbekistan,0.39765624999999993
307,2941665.726799998,2084.1885999981314,True,127,mg.png,madagascar,0.369140625
308,2949667.6851999946,2393.65920000989,True,12,az.png,azerbaijan,0.5000000000000002
309,2959323.9974000026,2915.9152999930084,True,35,ci.png,ivory coast,0.5062499999999999
310,2967739.1422999934,2244.1040000123903,True,21,bj.png,benin,0.3
311,2976687.4914999935,1703.0217000138946,True,97,it.png,italy,0.3
312,2983540.766399994,1394.667000000365,True,21,bj.png,benin,0.3
313,2989195.1244999943,1242.9694000021555,True,97,it.png,italy,0.3
314,2994990.076899994,2193.397900002077,True,22,bn.png,brunei,0.27656249999999993
315,3001644.9732000036,2298.9972999934107,True,92,im.png,isle of man,0.3
316,3014094.9459999977,1829.3351000025868,True,12,az.png,azerbaijan,0.4988281250000002
317,3023106.816300002,1687.8308000015095,True,92,im.png,isle of man,0.3
318,3030615.979800001,2140.5245000058785,False,35,ci.png,ivory coast,0.5183593749999998
319,3040291.549600006,12556.170099996962,True,21,bj.png,benin,0.349609375
320,3056860.7345000054,1414.2097000004724,True,97,it.png,italy,0.250390625
321,3062773.4392999993,inf,True,78,gn.png,guinea,0.4937499999999999
322,3077660.642400006,5167.630199997686,True,17,bf.png,burkina faso,0.3593750000000001
323,3090356.552600002,1488.3611999978311,True,92,im.png,isle of man,0.250390625
324,3097180.2078000037,4474.4845999958925,True,21,bj.png,benin,0.39921874999999996
325,3105458.8596999967,2505.334500005003,True,106,km.png,comoros,0.3515624999999999
326,3114595.436999996,2503.8080000085756,True,35,ci.png,ivory coast,0.5070312499999998
327,3122875.7417000015,2392.8863000036217,True,12,az.png,azerbaijan,0.4984375000000002
328,3132219.5309999953,2496.6447000042535,True,78,gn.png,guinea,0.49335937499999993
329,3139310.6133999974,1661.3731999965385,True,21,bj.png,benin,0.398828125
330,3145118.835300003,4290.437000003643,True,82,gw.png,guinea bissau,0.349609375
331,3159747.4247000064,2218.3893999899738,True,133,mq.png,martinique,0.3421875
332,3171601.6734000007,3017.7092999946326,True,64,ga.png,gabon,0.5324218750000007
333,3179487.0706999935,1739.9094000142068,True,140,my.png,malaysia,0.29179687500000007
334,3186679.6324000023,3515.4106999980286,True,1,ae.png,united arab emirates,0.2968750000000001
335,3199360.1449999986,2444.4993000072427,True,82,gw.png,guinea bissau,0.34687500000000004
336,3212792.3257000074,2115.4998999992386,True,21,bj.png,benin,0.36171875
337,3219015.0291000027,2485.0123999929056,True,78,gn.png,guinea,0.48749999999999993
338,3226326.8552999943,1510.7780000106432,True,12,az.png,azerbaijan,0.4730468750000002
339,3235504.6146999956,2033.1161000067368,True,64,ga.png,gabon,0.48906250000000073
340,3241855.231099995,3330.2185000064783,True,35,ci.png,ivory coast,0.5183593749999997
341,3250898.0308000026,8620.470299996901,True,17,bf.png,burkina faso,0.40898437500000007
342,3266601.1360999984,2665.547099997755,True,48,dk.png,denmark,0.25625
343,3274702.571899994,1585.6015000026673,True,162,qa.png,qatar,0.20078125
344,3280676.7891000053,4786.790999991354,False,17,bf.png,burkina faso,0.42734375000000013
345,3289677.734199999,3069.0668000020087,True,202,uz.png,uzbekistan,0.410546875
346,3298423.2484999956,3568.5254999990575,True,35,ci.png,ivory coast,0.5429687499999998
347,3307698.0033,2087.4922999935225,True,11,aw.png,aruba,0.22890624999999998
348,3313802.5611000047,4241.125499989837,True,104,kh.png,cambodia,0.32343749999999993
349,3323749.793499999,3382.5952000045218,True,78,gn.png,guinea,0.4878906249999999
350,3331801.4302999945,2097.5061000064015,True,35,ci.png,ivory coast,0.5425781249999998
351,3339391.5409000036,9154.361900000367,False,17,bf.png,burkina faso,0.42929687500000013
352,3370766.2643000074,5305.195199995302,True,82,gw.png,guinea bissau,0.362890625
353,3384073.8910999936,1852.7824000045657,True,35,ci.png,ivory coast,0.5179687499999998
354,3391657.938000004,2438.1292000035755,True,106,km.png,comoros,0.3457031249999999
355,3398394.888099996,1955.279700006824,True,104,kh.png,cambodia,0.277734375
356,3405969.9092999944,2313.824600001797,True,21,bj.png,benin,0.355859375
357,3412198.7260000026,1693.678700000979,True,0,ad.png,andorra,0.3125
358,3418201.1828999966,3695.336300006602,True,17,bf.png,burkina faso,0.43125000000000013
359,3429452.9444999937,1453.936000005342,True,97,it.png,italy,0.20078125
360,3435169.5627000006,2229.8775999955833,True,133,mq.png,martinique,0.341796875
361,3447331.876199998,4438.631400000304,True,78,gn.png,guinea,0.5375
362,3456915.229799997,5145.497100005858,True,202,uz.png,uzbekistan,0.42734375
363,3467523.2452000054,1802.5415000012144,True,78,gn.png,guinea,0.487890625
364,3473776.4832999967,1540.6330999974161,True,12,az.png,azerbaijan,0.43515625000000024
365,3482496.321600003,1493.5133999972604,True,92,im.png,isle of man,0.20078125
366,3489704.7944999943,2570.3328000088222,False,82,gw.png,guinea bissau,0.36328125
367,3501451.714800001,2853.186499997042,True,127,mg.png,madagascar,0.37421874999999993
368,3509375.1671000062,4550.089199998416,True,17,bf.png,burkina faso,0.4808593750000001
369,3520291.3968000067,2010.735499992501,True,35,ci.png,ivory coast,0.5121093749999998
370,3527572.473299995,1575.8020000066608,True,17,bf.png,burkina faso,0.4804687500000001
371,3536271.7831000043,2979.5704999999143,True,83,gy.png,guyana,0.34492187500000016
372,3544446.6997999987,3326.3431999953464,True,188,tj.png,tajikistan,0.3
373,3558468.705499996,3139.667200011667,True,202,uz.png,uzbekistan,0.45195312500000007
374,3567876.5543000046,2004.9847999904305,True,188,tj.png,tajikistan,0.3
375,3584638.897500001,2973.3585999929346,True,17,bf.png,burkina faso,0.5136718750000001
376,3595243.6770000057,1914.561899990309,True,14,bb.png,barbados,0.3
377,3605923.0881999973,1818.4919000053778,True,17,bf.png,burkina faso,0.5109375000000002
378,3614339.8536000024,1961.6671999972314,True,14,bb.png,barbados,0.3
379,3622776.346400002,2237.709099994041,True,202,uz.png,uzbekistan,0.4296875
380,3630663.5935999947,1911.6062000105157,True,188,tj.png,tajikistan,0.250390625
381,3644770.8855999955,1942.6749999984168,True,21,bj.png,benin,0.34296874999999993
382,3650347.7848000037,2843.3336000018753,True,78,gn.png,guinea,0.51328125
383,3657358.5388000067,1929.4832999873906,True,17,bf.png,burkina faso,0.5105468750000002
384,3665509.524699999,1788.7543999967165,True,35,ci.png,ivory coast,0.4874999999999997
385,3673724.5675000013,1820.5960000050254,True,14,bb.png,barbados,0.250390625
386,3681137.1683000033,14328.23990000179,False,82,gw.png,guinea bissau,0.41289062499999996
387,3697705.6541000055,inf,True,78,gn.png,guinea,0.5378906250000001
388,4032853.394699996,7282.5873000114225,True,17,bf.png,burkina faso,0.4851562500000002
389,4048039.9199999957,2993.6529999976046,True,78,gn.png,guinea,0.5062500000000001
390,4055024.449000004,5332.69860000303,True,82,gw.png,guinea bissau,0.4203125
391,4066918.495799997,1779.3363000089303,True,106,km.png,comoros,0.34218749999999987
392,4074023.0626999983,2806.726299997419,True,133,mq.png,martinique,0.33828125
393,4085151.5394000015,1223.328499996569,True,48,dk.png,denmark,0.206640625
394,4090781.7308999947,5498.883700012695,True,17,bf.png,burkina faso,0.4980468750000002
395,4103120.0644000056,4338.1092999917455,True,83,gy.png,guyana,0.3460937500000002
396,4112790.7322999965,3115.952899999451,True,202,uz.png,uzbekistan,0.44257812500000004
397,4122946.545400002,6897.767200003378,True,82,gw.png,guinea bissau,0.43242187499999996
398,4138873.8483000053,inf,True,78,gn.png,guinea,0.5066406250000001
399,4150285.806700005,3137.526199992746,True,17,bf.png,burkina faso,0.4984375000000002
400,4161542.548199999,3588.8612999990582,True,64,ga.png,gabon,0.5136718750000008
401,4169296.3827000055,2007.4910999974236,True,21,bj.png,benin,0.30195312499999993
402,4175392.959599994,inf,False,188,tj.png,tajikistan,0.29999999999999993
403,4200392.6318000015,11010.149799999781,True,82,gw.png,guinea bissau,0.44062499999999993
404,4219035.9953000005,2966.49839999713,True,64,ga.png,gabon,0.5226562500000008
405,4226323.828199995,4046.302000002004,True,14,bb.png,barbados,0.29999999999999993
406,4236081.571000002,3061.212899993174,True,17,bf.png,burkina faso,0.5191406250000002
407,4248237.094700002,2142.699799994938,True,35,ci.png,ivory coast,0.4644531249999997
408,4255844.513000004,1691.7023999989033,True,202,uz.png,uzbekistan,0.44218750000000007
409,4262734.7156000035,2336.400100001134,True,78,gn.png,guinea,0.5062500000000001
410,4269027.338600004,inf,True,127,mg.png,madagascar,0.3863281249999999
411,4279367.419700007,2371.81799999997,True,17,bf.png,burkina faso,0.5187500000000003
412,4288175.671200006,2720.1468999991193,True,64,ga.png,gabon,0.5230468750000008
413,4294533.518600001,2984.4867000067607,True,82,gw.png,guinea bissau,0.4410156249999999

